rating_loop.thisRepN,rating_loop.thisTrialN,rating_loop.thisN,rating_loop.thisIndex,thisRow.t,notes,WelcomeScreen.started,WelcomeScreen.stopped,trial.started,trial.stopped,sliderRating.response,slider_stop.response,temperature_PT,sliderRating.markerPos,GoodbyScreen.started,text.started,GoodbyScreen.stopped,participant,session,date,expName,psychopyVersion,frameRate,expStart,
,,,,,,0.16575960023328662,5.541104200296104,,,,,,,,,,95,001,2024-09-17_16h36.08.654,Coldplate_v74,2024.1.5,60,2024-09-17 16h36.52.746446 +0200,
,,,,,,,,,,,,,,,,,95,001,2024-09-17_16h36.08.654,Coldplate_v74,2024.1.5,60,2024-09-17 16h36.52.746446 +0200,
0,0,0,0,2024-09-17_16:36:58.662341,,,,6.0587022001855075,8.061455100309104,None,None,30.0,None,,,,95,001,2024-09-17_16h36.08.654,Coldplate_v74,2024.1.5,60,2024-09-17 16h36.52.746446 +0200,
1,0,1,0,2024-09-17_16:37:00.731066,,,,8.12809030013159,10.060649100225419,None,None,30.1,None,,,,95,001,2024-09-17_16h36.08.654,Coldplate_v74,2024.1.5,60,2024-09-17 16h36.52.746446 +0200,
2,0,2,0,2024-09-17_16:37:02.730520,,,,10.126237200107425,12.061032299883664,None,None,30.1,None,,,,95,001,2024-09-17_16h36.08.654,Coldplate_v74,2024.1.5,60,2024-09-17 16h36.52.746446 +0200,
3,0,3,0,2024-09-17_16:37:04.724890,,,,12.126309799961746,14.060483200009912,None,None,30.200000000000003,None,,,,95,001,2024-09-17_16h36.08.654,Coldplate_v74,2024.1.5,60,2024-09-17 16h36.52.746446 +0200,
4,0,4,0,2024-09-17_16:37:06.726863,,,,14.12639020010829,16.05920290015638,None,None,30.3,4.0,,,,95,001,2024-09-17_16h36.08.654,Coldplate_v74,2024.1.5,60,2024-09-17 16h36.52.746446 +0200,
5,0,5,0,2024-09-17_16:37:08.730161,,,,16.124769099988043,18.05882959999144,None,None,30.3,2.0,,,,95,001,2024-09-17_16h36.08.654,Coldplate_v74,2024.1.5,60,2024-09-17 16h36.52.746446 +0200,
6,0,6,0,2024-09-17_16:37:10.729404,,,,18.124292500317097,20.05913220020011,None,None,30.400000000000002,2.0,,,,95,001,2024-09-17_16h36.08.654,Coldplate_v74,2024.1.5,60,2024-09-17 16h36.52.746446 +0200,
7,0,7,0,2024-09-17_16:37:12.730014,,,,20.124409399926662,22.059184100013226,None,None,30.400000000000002,3.0,,,,95,001,2024-09-17_16h36.08.654,Coldplate_v74,2024.1.5,60,2024-09-17 16h36.52.746446 +0200,
8,0,8,0,2024-09-17_16:37:14.725229,,,,22.123974800109863,24.058701100293547,None,None,30.5,3.0,,,,95,001,2024-09-17_16h36.08.654,Coldplate_v74,2024.1.5,60,2024-09-17 16h36.52.746446 +0200,
9,0,9,0,2024-09-17_16:37:16.729197,,,,24.12469860026613,26.058554500341415,None,None,30.5,3.0,,,,95,001,2024-09-17_16h36.08.654,Coldplate_v74,2024.1.5,60,2024-09-17 16h36.52.746446 +0200,
10,0,10,0,2024-09-17_16:37:18.728744,,,,26.123670400120318,28.059562200214714,None,None,30.5,3.0,,,,95,001,2024-09-17_16h36.08.654,Coldplate_v74,2024.1.5,60,2024-09-17 16h36.52.746446 +0200,
11,0,11,0,2024-09-17_16:37:20.730356,,,,28.124471900053322,30.058691900223494,None,None,30.6,3.0,,,,95,001,2024-09-17_16h36.08.654,Coldplate_v74,2024.1.5,60,2024-09-17 16h36.52.746446 +0200,
12,0,12,0,2024-09-17_16:37:22.726860,,,,30.12295960029587,32.058997500222176,None,None,30.6,3.0,,,,95,001,2024-09-17_16h36.08.654,Coldplate_v74,2024.1.5,60,2024-09-17 16h36.52.746446 +0200,
13,0,13,0,2024-09-17_16:37:24.726341,,,,32.12445090012625,34.058567699976265,None,None,30.6,3.0,,,,95,001,2024-09-17_16h36.08.654,Coldplate_v74,2024.1.5,60,2024-09-17 16h36.52.746446 +0200,
14,0,14,0,2024-09-17_16:37:26.729936,,,,34.123944600112736,36.058851700276136,None,None,30.6,3.0,,,,95,001,2024-09-17_16h36.08.654,Coldplate_v74,2024.1.5,60,2024-09-17 16h36.52.746446 +0200,
15,0,15,0,2024-09-17_16:37:28.726791,,,,36.124979900196195,38.057967599947006,None,None,30.6,3.0,,,,95,001,2024-09-17_16h36.08.654,Coldplate_v74,2024.1.5,60,2024-09-17 16h36.52.746446 +0200,
16,0,16,0,2024-09-17_16:37:30.728534,,,,38.12238269997761,40.057765500154346,None,None,30.6,3.0,,,,95,001,2024-09-17_16h36.08.654,Coldplate_v74,2024.1.5,60,2024-09-17 16h36.52.746446 +0200,
17,0,17,0,2024-09-17_16:37:32.726158,,,,40.12188490014523,42.05821550032124,None,None,30.6,3.0,,,,95,001,2024-09-17_16h36.08.654,Coldplate_v74,2024.1.5,60,2024-09-17 16h36.52.746446 +0200,
18,0,18,0,2024-09-17_16:37:34.729111,,,,42.12440189998597,44.05731890024617,None,None,30.6,3.0,,,,95,001,2024-09-17_16h36.08.654,Coldplate_v74,2024.1.5,60,2024-09-17 16h36.52.746446 +0200,
19,0,19,0,2024-09-17_16:37:36.731071,,,,44.1222055000253,46.05935089988634,None,None,30.5,3.0,,,,95,001,2024-09-17_16h36.08.654,Coldplate_v74,2024.1.5,60,2024-09-17 16h36.52.746446 +0200,
20,0,20,0,2024-09-17_16:37:38.730203,,,,46.124679000116885,48.05723119992763,None,None,30.5,3.0,,,,95,001,2024-09-17_16h36.08.654,Coldplate_v74,2024.1.5,60,2024-09-17 16h36.52.746446 +0200,
21,0,21,0,2024-09-17_16:37:40.725491,,,,48.1225495999679,50.0574477002956,None,None,30.5,3.0,,,,95,001,2024-09-17_16h36.08.654,Coldplate_v74,2024.1.5,60,2024-09-17 16h36.52.746446 +0200,
22,0,22,0,2024-09-17_16:37:42.726642,,,,50.12165920017287,52.05740400031209,None,None,30.5,3.0,,,,95,001,2024-09-17_16h36.08.654,Coldplate_v74,2024.1.5,60,2024-09-17 16h36.52.746446 +0200,
23,0,23,0,2024-09-17_16:37:44.723094,,,,52.12187210004777,54.05758440028876,None,None,30.400000000000002,3.0,,,,95,001,2024-09-17_16h36.08.654,Coldplate_v74,2024.1.5,60,2024-09-17 16h36.52.746446 +0200,
24,0,24,0,2024-09-17_16:37:46.728046,,,,54.124121400061995,56.05661559989676,None,None,30.400000000000002,3.0,,,,95,001,2024-09-17_16h36.08.654,Coldplate_v74,2024.1.5,60,2024-09-17 16h36.52.746446 +0200,
25,0,25,0,2024-09-17_16:37:48.726676,,,,56.12229140009731,58.05685959989205,None,None,30.400000000000002,3.0,,,,95,001,2024-09-17_16h36.08.654,Coldplate_v74,2024.1.5,60,2024-09-17 16h36.52.746446 +0200,
26,0,26,0,2024-09-17_16:37:50.726384,,,,58.121256300248206,60.055461999960244,None,None,30.3,3.0,,,,95,001,2024-09-17_16h36.08.654,Coldplate_v74,2024.1.5,60,2024-09-17 16h36.52.746446 +0200,
27,0,27,0,2024-09-17_16:37:52.721142,,,,60.11982200015336,62.05670760013163,None,None,30.3,3.0,,,,95,001,2024-09-17_16h36.08.654,Coldplate_v74,2024.1.5,60,2024-09-17 16h36.52.746446 +0200,
28,0,28,0,2024-09-17_16:37:54.726468,,,,62.1226739003323,64.05610030004755,None,None,30.3,3.0,,,,95,001,2024-09-17_16h36.08.654,Coldplate_v74,2024.1.5,60,2024-09-17 16h36.52.746446 +0200,
29,0,29,0,2024-09-17_16:37:56.722077,,,,64.12095319991931,66.05635150009766,None,None,30.200000000000003,3.0,,,,95,001,2024-09-17_16h36.08.654,Coldplate_v74,2024.1.5,60,2024-09-17 16h36.52.746446 +0200,
30,0,30,0,2024-09-17_16:37:58.723819,,,,66.12034999998286,68.0565595002845,None,None,30.200000000000003,3.0,,,,95,001,2024-09-17_16h36.08.654,Coldplate_v74,2024.1.5,60,2024-09-17 16h36.52.746446 +0200,
31,0,31,0,2024-09-17_16:38:00.725917,,,,68.12357000028715,70.05679780011997,None,None,30.200000000000003,3.0,,,,95,001,2024-09-17_16h36.08.654,Coldplate_v74,2024.1.5,60,2024-09-17 16h36.52.746446 +0200,
32,0,32,0,2024-09-17_16:38:02.723377,,,,70.12150210002437,72.05717140017077,None,None,30.200000000000003,3.0,,,,95,001,2024-09-17_16h36.08.654,Coldplate_v74,2024.1.5,60,2024-09-17 16h36.52.746446 +0200,
33,0,33,0,2024-09-17_16:38:04.723853,,,,72.12205930007622,74.05568889994174,None,None,30.200000000000003,3.0,,,,95,001,2024-09-17_16h36.08.654,Coldplate_v74,2024.1.5,60,2024-09-17 16h36.52.746446 +0200,
34,0,34,0,2024-09-17_16:38:06.722760,,,,74.11945430003107,76.05605440028012,None,None,30.1,3.0,,,,95,001,2024-09-17_16h36.08.654,Coldplate_v74,2024.1.5,60,2024-09-17 16h36.52.746446 +0200,
35,0,35,0,2024-09-17_16:38:08.724751,,,,76.12132199993357,78.05586050031707,None,None,30.1,2.0,,,,95,001,2024-09-17_16h36.08.654,Coldplate_v74,2024.1.5,60,2024-09-17 16h36.52.746446 +0200,
36,0,36,0,2024-09-17_16:38:10.727093,,,,78.12127640005201,80.05542990006506,None,None,30.1,2.0,,,,95,001,2024-09-17_16h36.08.654,Coldplate_v74,2024.1.5,60,2024-09-17 16h36.52.746446 +0200,
37,0,37,0,2024-09-17_16:38:12.726235,,,,80.12175350030884,82.05500530032441,None,None,30.1,2.0,,,,95,001,2024-09-17_16h36.08.654,Coldplate_v74,2024.1.5,60,2024-09-17 16h36.52.746446 +0200,
38,0,38,0,2024-09-17_16:38:14.723804,,,,82.11978670023382,84.05743570020422,None,None,30.1,2.0,,,,95,001,2024-09-17_16h36.08.654,Coldplate_v74,2024.1.5,60,2024-09-17 16h36.52.746446 +0200,
39,0,39,0,2024-09-17_16:38:16.723265,,,,84.12225940031931,86.05742150032893,None,None,30.0,2.0,,,,95,001,2024-09-17_16h36.08.654,Coldplate_v74,2024.1.5,60,2024-09-17 16h36.52.746446 +0200,
40,0,40,0,2024-09-17_16:38:18.726050,,,,86.12384700030088,88.05625500017777,None,None,30.0,2.0,,,,95,001,2024-09-17_16h36.08.654,Coldplate_v74,2024.1.5,60,2024-09-17 16h36.52.746446 +0200,
41,0,41,0,2024-09-17_16:38:20.726243,,,,88.12233190005645,90.05640419991687,None,None,30.0,2.0,,,,95,001,2024-09-17_16h36.08.654,Coldplate_v74,2024.1.5,60,2024-09-17 16h36.52.746446 +0200,
42,0,42,0,2024-09-17_16:38:22.723282,,,,90.12068640021607,92.0561955999583,None,None,30.1,2.0,,,,95,001,2024-09-17_16h36.08.654,Coldplate_v74,2024.1.5,60,2024-09-17 16h36.52.746446 +0200,
43,0,43,0,2024-09-17_16:38:24.726526,,,,92.12146080005914,94.05546570010483,None,None,30.0,2.0,,,,95,001,2024-09-17_16h36.08.654,Coldplate_v74,2024.1.5,60,2024-09-17 16h36.52.746446 +0200,
44,0,44,0,2024-09-17_16:38:26.729396,,,,94.12230359995738,96.05582340015098,None,None,30.0,2.0,,,,95,001,2024-09-17_16h36.08.654,Coldplate_v74,2024.1.5,60,2024-09-17 16h36.52.746446 +0200,
45,0,45,0,2024-09-17_16:38:28.721973,,,,96.12112230015919,98.05510570015758,None,None,30.1,2.0,,,,95,001,2024-09-17_16h36.08.654,Coldplate_v74,2024.1.5,60,2024-09-17 16h36.52.746446 +0200,
46,0,46,0,2024-09-17_16:38:30.726360,,,,98.1213922998868,100.05690440023318,None,None,30.1,2.0,,,,95,001,2024-09-17_16h36.08.654,Coldplate_v74,2024.1.5,60,2024-09-17 16h36.52.746446 +0200,
47,0,47,0,2024-09-17_16:38:32.728617,,,,100.12199420016259,102.05478980019689,None,None,30.0,2.0,,,,95,001,2024-09-17_16h36.08.654,Coldplate_v74,2024.1.5,60,2024-09-17 16h36.52.746446 +0200,
48,0,48,0,2024-09-17_16:38:34.726483,,,,102.12069830019027,104.05657850019634,None,None,30.1,2.0,,,,95,001,2024-09-17_16h36.08.654,Coldplate_v74,2024.1.5,60,2024-09-17 16h36.52.746446 +0200,
49,0,49,0,2024-09-17_16:38:36.727017,,,,104.12196499994025,106.05508240032941,None,None,30.1,2.0,,,,95,001,2024-09-17_16h36.08.654,Coldplate_v74,2024.1.5,60,2024-09-17 16h36.52.746446 +0200,
50,0,50,0,2024-09-17_16:38:38.725527,,,,106.11858250014484,108.05429140012711,None,None,30.1,2.0,,,,95,001,2024-09-17_16h36.08.654,Coldplate_v74,2024.1.5,60,2024-09-17 16h36.52.746446 +0200,
51,0,51,0,2024-09-17_16:38:40.725118,,,,108.12026550015435,110.05516669992357,None,None,30.1,2.0,,,,95,001,2024-09-17_16h36.08.654,Coldplate_v74,2024.1.5,60,2024-09-17 16h36.52.746446 +0200,
52,0,52,0,2024-09-17_16:38:42.727719,,,,110.12232830002904,112.05478230025619,None,None,30.1,2.0,,,,95,001,2024-09-17_16h36.08.654,Coldplate_v74,2024.1.5,60,2024-09-17 16h36.52.746446 +0200,
53,0,53,0,2024-09-17_16:38:44.721939,,,,112.1204594001174,114.05510970018804,None,None,30.1,2.0,,,,95,001,2024-09-17_16h36.08.654,Coldplate_v74,2024.1.5,60,2024-09-17 16h36.52.746446 +0200,
54,0,54,0,2024-09-17_16:38:46.720657,,,,114.11976280016825,116.05534239998087,None,None,30.1,2.0,,,,95,001,2024-09-17_16h36.08.654,Coldplate_v74,2024.1.5,60,2024-09-17 16h36.52.746446 +0200,
55,0,55,0,2024-09-17_16:38:48.723249,,,,116.12068830011413,118.05502200033516,3.0,None,30.1,3.0,,,,95,001,2024-09-17_16h36.08.654,Coldplate_v74,2024.1.5,60,2024-09-17 16h36.52.746446 +0200,
56,0,56,0,2024-09-17_16:38:50.724353,,,,118.12006379989907,120.05333240004256,None,None,30.1,4.0,,,,95,001,2024-09-17_16h36.08.654,Coldplate_v74,2024.1.5,60,2024-09-17 16h36.52.746446 +0200,
57,0,57,0,2024-09-17_16:38:52.723055,,,,120.12031219992787,122.05388989998028,None,None,30.1,3.0,,,,95,001,2024-09-17_16h36.08.654,Coldplate_v74,2024.1.5,60,2024-09-17 16h36.52.746446 +0200,
58,0,58,0,2024-09-17_16:38:54.724529,,,,122.12103410018608,124.05548450024799,None,None,30.1,5.0,,,,95,001,2024-09-17_16h36.08.654,Coldplate_v74,2024.1.5,60,2024-09-17 16h36.52.746446 +0200,
59,0,59,0,2024-09-17_16:38:56.723089,,,,124.12129339994863,126.05468469997868,None,None,30.1,3.0,,,,95,001,2024-09-17_16h36.08.654,Coldplate_v74,2024.1.5,60,2024-09-17 16h36.52.746446 +0200,
60,0,60,0,2024-09-17_16:38:58.724519,,,,126.12130089988932,128.05425820033997,None,None,30.1,3.0,,,,95,001,2024-09-17_16h36.08.654,Coldplate_v74,2024.1.5,60,2024-09-17 16h36.52.746446 +0200,
61,0,61,0,2024-09-17_16:39:00.724477,,,,128.11933770030737,130.0533016999252,None,None,30.1,3.0,,,,95,001,2024-09-17_16h36.08.654,Coldplate_v74,2024.1.5,60,2024-09-17 16h36.52.746446 +0200,
62,0,62,0,2024-09-17_16:39:02.722424,,,,130.11931229988113,132.0549468002282,None,None,30.0,3.0,,,,95,001,2024-09-17_16h36.08.654,Coldplate_v74,2024.1.5,60,2024-09-17 16h36.52.746446 +0200,
63,0,63,0,2024-09-17_16:39:04.728209,,,,132.12126890011132,134.0541358999908,None,None,30.0,3.0,,,,95,001,2024-09-17_16h36.08.654,Coldplate_v74,2024.1.5,60,2024-09-17 16h36.52.746446 +0200,
64,0,64,0,2024-09-17_16:39:06.716047,,,,134.117101599928,136.05431340029463,None,None,30.0,4.0,,,,95,001,2024-09-17_16h36.08.654,Coldplate_v74,2024.1.5,60,2024-09-17 16h36.52.746446 +0200,
65,0,65,0,2024-09-17_16:39:08.724216,,,,136.1208159001544,138.05336449993774,None,None,30.0,2.0,,,,95,001,2024-09-17_16h36.08.654,Coldplate_v74,2024.1.5,60,2024-09-17 16h36.52.746446 +0200,
66,0,66,0,2024-09-17_16:39:10.719919,,,,138.11859570024535,140.05391700007021,None,None,29.900000000000002,2.0,,,,95,001,2024-09-17_16h36.08.654,Coldplate_v74,2024.1.5,60,2024-09-17 16h36.52.746446 +0200,
67,0,67,0,2024-09-17_16:39:12.723981,,,,140.11880340008065,142.05312190018594,None,None,29.900000000000002,3.0,,,,95,001,2024-09-17_16h36.08.654,Coldplate_v74,2024.1.5,60,2024-09-17 16h36.52.746446 +0200,
68,0,68,0,2024-09-17_16:39:14.723888,,,,142.11846730019897,144.0526291001588,None,None,29.900000000000002,2.0,,,,95,001,2024-09-17_16h36.08.654,Coldplate_v74,2024.1.5,60,2024-09-17 16h36.52.746446 +0200,
69,0,69,0,2024-09-17_16:39:16.719789,,,,144.1187920998782,146.05339780030772,None,None,29.8,2.0,,,,95,001,2024-09-17_16h36.08.654,Coldplate_v74,2024.1.5,60,2024-09-17 16h36.52.746446 +0200,
70,0,70,0,2024-09-17_16:39:18.720210,,,,146.11931920005009,148.05298419995233,None,None,29.700000000000003,3.0,,,,95,001,2024-09-17_16h36.08.654,Coldplate_v74,2024.1.5,60,2024-09-17 16h36.52.746446 +0200,
71,0,71,0,2024-09-17_16:39:20.724716,,,,148.1189195001498,150.05206370027736,None,None,29.700000000000003,2.0,,,,95,001,2024-09-17_16h36.08.654,Coldplate_v74,2024.1.5,60,2024-09-17 16h36.52.746446 +0200,
72,0,72,0,2024-09-17_16:39:22.722980,,,,150.11737259989604,152.05383299989626,None,None,29.6,2.0,,,,95,001,2024-09-17_16h36.08.654,Coldplate_v74,2024.1.5,60,2024-09-17 16h36.52.746446 +0200,
73,0,73,0,2024-09-17_16:39:24.723860,,,,152.11839030031115,154.05190959991887,None,None,29.5,3.0,,,,95,001,2024-09-17_16h36.08.654,Coldplate_v74,2024.1.5,60,2024-09-17 16h36.52.746446 +0200,
74,0,74,0,2024-09-17_16:39:26.720263,,,,154.11610019998625,156.05275140004233,None,None,29.400000000000002,3.0,,,,95,001,2024-09-17_16h36.08.654,Coldplate_v74,2024.1.5,60,2024-09-17 16h36.52.746446 +0200,
75,0,75,0,2024-09-17_16:39:28.722256,,,,156.1191136999987,158.05309010017663,None,None,29.3,2.0,,,,95,001,2024-09-17_16h36.08.654,Coldplate_v74,2024.1.5,60,2024-09-17 16h36.52.746446 +0200,
76,0,76,0,2024-09-17_16:39:30.718497,,,,158.11788609996438,160.0515533001162,None,None,29.1,3.0,,,,95,001,2024-09-17_16h36.08.654,Coldplate_v74,2024.1.5,60,2024-09-17 16h36.52.746446 +0200,
77,0,77,0,2024-09-17_16:39:32.722376,,,,160.1180794001557,162.05242840014398,None,None,29.0,2.0,,,,95,001,2024-09-17_16h36.08.654,Coldplate_v74,2024.1.5,60,2024-09-17 16h36.52.746446 +0200,
78,0,78,0,2024-09-17_16:39:34.722408,,,,162.1177829001099,164.05181250022724,None,None,28.900000000000002,3.0,,,,95,001,2024-09-17_16h36.08.654,Coldplate_v74,2024.1.5,60,2024-09-17 16h36.52.746446 +0200,
79,0,79,0,2024-09-17_16:39:36.720041,,,,164.1184626002796,166.051230000332,None,None,28.8,3.0,,,,95,001,2024-09-17_16h36.08.654,Coldplate_v74,2024.1.5,60,2024-09-17 16h36.52.746446 +0200,
80,0,80,0,2024-09-17_16:39:38.720673,,,,166.1172193000093,168.05277130007744,None,None,28.6,3.0,,,,95,001,2024-09-17_16h36.08.654,Coldplate_v74,2024.1.5,60,2024-09-17 16h36.52.746446 +0200,
81,0,81,0,2024-09-17_16:39:40.719329,,,,168.1175723001361,170.05188510008156,None,None,28.5,3.0,,,,95,001,2024-09-17_16h36.08.654,Coldplate_v74,2024.1.5,60,2024-09-17 16h36.52.746446 +0200,
82,0,82,0,2024-09-17_16:39:42.719190,,,,170.11595930019394,172.0509091001004,None,None,28.3,4.0,,,,95,001,2024-09-17_16h36.08.654,Coldplate_v74,2024.1.5,60,2024-09-17 16h36.52.746446 +0200,
83,0,83,0,2024-09-17_16:39:44.716748,,,,172.11549220001325,174.05201560026035,None,None,28.200000000000003,4.0,,,,95,001,2024-09-17_16h36.08.654,Coldplate_v74,2024.1.5,60,2024-09-17 16h36.52.746446 +0200,
84,0,84,0,2024-09-17_16:39:46.722807,,,,174.11774330027401,176.05116660008207,None,None,28.0,4.0,,,,95,001,2024-09-17_16h36.08.654,Coldplate_v74,2024.1.5,60,2024-09-17 16h36.52.746446 +0200,
85,0,85,0,2024-09-17_16:39:48.723493,,,,176.11617500009015,178.052716600243,None,None,27.900000000000002,4.0,,,,95,001,2024-09-17_16h36.08.654,Coldplate_v74,2024.1.5,60,2024-09-17 16h36.52.746446 +0200,
86,0,86,0,2024-09-17_16:39:50.723148,,,,178.11875759996474,180.05136170005426,None,None,27.700000000000003,5.0,,,,95,001,2024-09-17_16h36.08.654,Coldplate_v74,2024.1.5,60,2024-09-17 16h36.52.746446 +0200,
87,0,87,0,2024-09-17_16:39:52.723294,,,,180.11847120011225,182.05058989999816,None,None,27.5,8.0,,,,95,001,2024-09-17_16h36.08.654,Coldplate_v74,2024.1.5,60,2024-09-17 16h36.52.746446 +0200,
88,0,88,0,2024-09-17_16:39:54.720867,,,,182.1176191000268,184.05106220021844,None,None,27.400000000000002,9.0,,,,95,001,2024-09-17_16h36.08.654,Coldplate_v74,2024.1.5,60,2024-09-17 16h36.52.746446 +0200,
89,0,89,0,2024-09-17_16:39:56.723057,,,,184.1164525002241,186.05100989993662,None,None,27.200000000000003,10.0,,,,95,001,2024-09-17_16h36.08.654,Coldplate_v74,2024.1.5,60,2024-09-17 16h36.52.746446 +0200,
90,0,90,0,2024-09-17_16:39:58.720654,,,,186.1159915002063,188.0519958003424,None,None,27.0,9.0,,,,95,001,2024-09-17_16h36.08.654,Coldplate_v74,2024.1.5,60,2024-09-17 16h36.52.746446 +0200,
91,0,91,0,2024-09-17_16:40:00.723276,,,,188.1187607003376,190.04937899997458,None,None,26.8,9.0,,,,95,001,2024-09-17_16h36.08.654,Coldplate_v74,2024.1.5,60,2024-09-17 16h36.52.746446 +0200,
92,0,92,0,2024-09-17_16:40:02.715497,,,,190.1149067999795,192.05172340013087,None,None,26.700000000000003,9.0,,,,95,001,2024-09-17_16h36.08.654,Coldplate_v74,2024.1.5,60,2024-09-17 16h36.52.746446 +0200,
93,0,93,0,2024-09-17_16:40:04.721664,,,,192.11681090015918,194.04965770011768,None,None,26.5,9.0,,,,95,001,2024-09-17_16h36.08.654,Coldplate_v74,2024.1.5,60,2024-09-17 16h36.52.746446 +0200,
94,0,94,0,2024-09-17_16:40:06.713300,,,,194.1128034000285,196.0500016999431,None,None,26.3,9.0,,,,95,001,2024-09-17_16h36.08.654,Coldplate_v74,2024.1.5,60,2024-09-17 16h36.52.746446 +0200,
95,0,95,0,2024-09-17_16:40:08.720141,,,,196.11472720000893,198.04969049990177,None,None,26.1,9.0,,,,95,001,2024-09-17_16h36.08.654,Coldplate_v74,2024.1.5,60,2024-09-17 16h36.52.746446 +0200,
96,0,96,0,2024-09-17_16:40:10.717075,,,,198.1153931999579,200.0508669000119,None,None,25.900000000000002,9.0,,,,95,001,2024-09-17_16h36.08.654,Coldplate_v74,2024.1.5,60,2024-09-17 16h36.52.746446 +0200,
97,0,97,0,2024-09-17_16:40:12.722290,,,,200.11823859997094,202.05006620008498,None,None,25.700000000000003,9.0,,,,95,001,2024-09-17_16h36.08.654,Coldplate_v74,2024.1.5,60,2024-09-17 16h36.52.746446 +0200,
98,0,98,0,2024-09-17_16:40:14.715369,,,,202.11385799990967,204.04942010017112,None,None,25.6,9.0,,,,95,001,2024-09-17_16h36.08.654,Coldplate_v74,2024.1.5,60,2024-09-17 16h36.52.746446 +0200,
99,0,99,0,2024-09-17_16:40:16.718218,,,,204.11540100025013,206.05013750027865,None,None,25.400000000000002,9.0,,,,95,001,2024-09-17_16h36.08.654,Coldplate_v74,2024.1.5,60,2024-09-17 16h36.52.746446 +0200,
100,0,100,0,2024-09-17_16:40:18.719471,,,,206.11466909991577,208.051078800112,None,None,25.200000000000003,9.0,,,,95,001,2024-09-17_16h36.08.654,Coldplate_v74,2024.1.5,60,2024-09-17 16h36.52.746446 +0200,
101,0,101,0,2024-09-17_16:40:20.720113,,,,208.11651819990948,210.04859380004928,None,None,25.0,9.0,,,,95,001,2024-09-17_16h36.08.654,Coldplate_v74,2024.1.5,60,2024-09-17 16h36.52.746446 +0200,
102,0,102,0,2024-09-17_16:40:22.714170,,,,210.11217650026083,212.04988160030916,None,None,24.900000000000002,9.0,,,,95,001,2024-09-17_16h36.08.654,Coldplate_v74,2024.1.5,60,2024-09-17 16h36.52.746446 +0200,
103,0,103,0,2024-09-17_16:40:24.720015,,,,212.11410250002518,214.04979490023106,None,None,24.700000000000003,9.0,,,,95,001,2024-09-17_16h36.08.654,Coldplate_v74,2024.1.5,60,2024-09-17 16h36.52.746446 +0200,
104,0,104,0,2024-09-17_16:40:26.720700,,,,214.115293700248,216.04837660025805,None,None,24.5,9.0,,,,95,001,2024-09-17_16h36.08.654,Coldplate_v74,2024.1.5,60,2024-09-17 16h36.52.746446 +0200,
105,0,105,0,2024-09-17_16:40:28.719061,,,,216.1143432999961,218.0491637000814,None,None,24.3,10.0,,,,95,001,2024-09-17_16h36.08.654,Coldplate_v74,2024.1.5,60,2024-09-17 16h36.52.746446 +0200,
106,0,106,0,2024-09-17_16:40:30.721362,,,,218.115941000171,220.04891870031133,None,None,24.200000000000003,9.0,,,,95,001,2024-09-17_16h36.08.654,Coldplate_v74,2024.1.5,60,2024-09-17 16h36.52.746446 +0200,
107,0,107,0,2024-09-17_16:40:32.720372,,,,220.11482860008255,222.04873630031943,None,None,24.0,9.0,,,,95,001,2024-09-17_16h36.08.654,Coldplate_v74,2024.1.5,60,2024-09-17 16h36.52.746446 +0200,
108,0,108,0,2024-09-17_16:40:34.717977,,,,222.1135840001516,224.04975729994476,None,None,23.8,9.0,,,,95,001,2024-09-17_16h36.08.654,Coldplate_v74,2024.1.5,60,2024-09-17 16h36.52.746446 +0200,
109,0,109,0,2024-09-17_16:40:36.716730,,,,224.1155392001383,226.04792150016874,None,None,23.6,9.0,,,,95,001,2024-09-17_16h36.08.654,Coldplate_v74,2024.1.5,60,2024-09-17 16h36.52.746446 +0200,
110,0,110,0,2024-09-17_16:40:38.716954,,,,226.11355340015143,228.04962670011446,None,None,23.5,9.0,,,,95,001,2024-09-17_16h36.08.654,Coldplate_v74,2024.1.5,60,2024-09-17 16h36.52.746446 +0200,
111,0,111,0,2024-09-17_16:40:40.716492,,,,228.114545899909,230.04898030031472,None,None,23.3,9.0,,,,95,001,2024-09-17_16h36.08.654,Coldplate_v74,2024.1.5,60,2024-09-17 16h36.52.746446 +0200,
112,0,112,0,2024-09-17_16:40:42.719561,,,,230.11464630020782,232.04859249992296,None,None,23.1,9.0,,,,95,001,2024-09-17_16h36.08.654,Coldplate_v74,2024.1.5,60,2024-09-17 16h36.52.746446 +0200,
113,0,113,0,2024-09-17_16:40:44.718948,,,,232.11471009999514,234.04937970032915,None,None,23.0,9.0,,,,95,001,2024-09-17_16h36.08.654,Coldplate_v74,2024.1.5,60,2024-09-17 16h36.52.746446 +0200,
114,0,114,0,2024-09-17_16:40:46.719139,,,,234.11511059990153,236.0492297001183,None,None,22.8,8.0,,,,95,001,2024-09-17_16h36.08.654,Coldplate_v74,2024.1.5,60,2024-09-17 16h36.52.746446 +0200,
115,0,115,0,2024-09-17_16:40:48.718777,,,,236.11555200023577,238.04924840014428,None,None,22.700000000000003,8.0,,,,95,001,2024-09-17_16h36.08.654,Coldplate_v74,2024.1.5,60,2024-09-17 16h36.52.746446 +0200,
116,0,116,0,2024-09-17_16:40:50.717794,,,,238.11393570015207,240.04916719999164,None,None,22.5,8.0,,,,95,001,2024-09-17_16h36.08.654,Coldplate_v74,2024.1.5,60,2024-09-17 16h36.52.746446 +0200,
117,0,117,0,2024-09-17_16:40:52.719129,,,,240.1154422000982,242.04830650007352,None,None,22.3,9.0,,,,95,001,2024-09-17_16h36.08.654,Coldplate_v74,2024.1.5,60,2024-09-17 16h36.52.746446 +0200,
118,0,118,0,2024-09-17_16:40:54.718470,,,,242.11296170018613,244.0478166001849,None,None,22.1,9.0,,,,95,001,2024-09-17_16h36.08.654,Coldplate_v74,2024.1.5,60,2024-09-17 16h36.52.746446 +0200,
119,0,119,0,2024-09-17_16:40:56.717190,,,,244.112669700291,246.0481132999994,None,None,22.0,9.0,,,,95,001,2024-09-17_16h36.08.654,Coldplate_v74,2024.1.5,60,2024-09-17 16h36.52.746446 +0200,
120,0,120,0,2024-09-17_16:40:58.714937,,,,246.11345220031217,248.04860650002956,None,None,21.8,9.0,,,,95,001,2024-09-17_16h36.08.654,Coldplate_v74,2024.1.5,60,2024-09-17 16h36.52.746446 +0200,
121,0,121,0,2024-09-17_16:41:00.718478,,,,248.11433849995956,250.0478357002139,None,None,21.6,9.0,,,,95,001,2024-09-17_16h36.08.654,Coldplate_v74,2024.1.5,60,2024-09-17 16h36.52.746446 +0200,
122,0,122,0,2024-09-17_16:41:02.719481,,,,250.113751700148,252.04815899999812,None,None,21.5,10.0,,,,95,001,2024-09-17_16h36.08.654,Coldplate_v74,2024.1.5,60,2024-09-17 16h36.52.746446 +0200,
123,0,123,0,2024-09-17_16:41:04.718604,,,,252.11414510011673,254.04671580018476,None,None,21.3,10.0,,,,95,001,2024-09-17_16h36.08.654,Coldplate_v74,2024.1.5,60,2024-09-17 16h36.52.746446 +0200,
124,0,124,0,2024-09-17_16:41:06.709121,,,,254.11028459994122,256.0467298999429,None,None,21.200000000000003,10.0,,,,95,001,2024-09-17_16h36.08.654,Coldplate_v74,2024.1.5,60,2024-09-17 16h36.52.746446 +0200,
125,0,125,0,2024-09-17_16:41:08.717805,,,,256.11138830007985,258.04843070032075,None,None,21.0,10.0,,,,95,001,2024-09-17_16h36.08.654,Coldplate_v74,2024.1.5,60,2024-09-17 16h36.52.746446 +0200,
126,0,126,0,2024-09-17_16:41:10.718399,,,,258.1139012002386,260.04780190018937,None,None,20.900000000000002,10.0,,,,95,001,2024-09-17_16h36.08.654,Coldplate_v74,2024.1.5,60,2024-09-17 16h36.52.746446 +0200,
127,0,127,0,2024-09-17_16:41:12.718158,,,,260.11303490027785,262.0471470002085,None,None,20.700000000000003,10.0,,,,95,001,2024-09-17_16h36.08.654,Coldplate_v74,2024.1.5,60,2024-09-17 16h36.52.746446 +0200,
128,0,128,0,2024-09-17_16:41:14.716194,,,,262.11167080001906,264.0469402000308,None,None,20.6,10.0,,,,95,001,2024-09-17_16h36.08.654,Coldplate_v74,2024.1.5,60,2024-09-17 16h36.52.746446 +0200,
129,0,129,0,2024-09-17_16:41:16.719578,,,,264.11319519998506,266.0477571003139,None,None,20.400000000000002,10.0,,,,95,001,2024-09-17_16h36.08.654,Coldplate_v74,2024.1.5,60,2024-09-17 16h36.52.746446 +0200,
130,0,130,0,2024-09-17_16:41:18.713032,,,,266.11213289992884,268.04758980032057,None,None,20.3,9.0,,,,95,001,2024-09-17_16h36.08.654,Coldplate_v74,2024.1.5,60,2024-09-17 16h36.52.746446 +0200,
131,0,131,0,2024-09-17_16:41:20.719763,,,,268.11345250019804,270.04607379995286,None,None,20.1,10.0,,,,95,001,2024-09-17_16h36.08.654,Coldplate_v74,2024.1.5,60,2024-09-17 16h36.52.746446 +0200,
132,0,132,0,2024-09-17_16:41:22.711864,,,,270.1111216000281,272.04789930023253,None,None,20.0,10.0,,,,95,001,2024-09-17_16h36.08.654,Coldplate_v74,2024.1.5,60,2024-09-17 16h36.52.746446 +0200,
133,0,133,0,2024-09-17_16:41:24.718491,,,,272.1133274999447,274.0462973001413,None,None,19.900000000000002,10.0,,,,95,001,2024-09-17_16h36.08.654,Coldplate_v74,2024.1.5,60,2024-09-17 16h36.52.746446 +0200,
134,0,134,0,2024-09-17_16:41:26.713072,,,,274.1104461001232,276.0453416001983,None,None,19.700000000000003,10.0,,,,95,001,2024-09-17_16h36.08.654,Coldplate_v74,2024.1.5,60,2024-09-17 16h36.52.746446 +0200,
135,0,135,0,2024-09-17_16:41:28.716137,,,,276.1115733003244,278.0476065003313,None,None,19.5,10.0,,,,95,001,2024-09-17_16h36.08.654,Coldplate_v74,2024.1.5,60,2024-09-17 16h36.52.746446 +0200,
136,0,136,0,2024-09-17_16:41:30.717965,,,,278.1142112999223,280.0473168999888,None,None,19.400000000000002,13.0,,,,95,001,2024-09-17_16h36.08.654,Coldplate_v74,2024.1.5,60,2024-09-17 16h36.52.746446 +0200,
137,0,137,0,2024-09-17_16:41:32.716049,,,,280.11228040000424,282.0472242003307,None,None,19.200000000000003,21.0,,,,95,001,2024-09-17_16h36.08.654,Coldplate_v74,2024.1.5,60,2024-09-17 16h36.52.746446 +0200,
138,0,138,0,2024-09-17_16:41:34.713510,,,,282.11200590012595,284.0477112000808,None,None,19.1,29.0,,,,95,001,2024-09-17_16h36.08.654,Coldplate_v74,2024.1.5,60,2024-09-17 16h36.52.746446 +0200,
139,0,139,0,2024-09-17_16:41:36.712025,,,,284.11174850026146,286.0461607002653,None,None,18.900000000000002,33.0,,,,95,001,2024-09-17_16h36.08.654,Coldplate_v74,2024.1.5,60,2024-09-17 16h36.52.746446 +0200,
140,0,140,0,2024-09-17_16:41:38.717090,,,,286.1116734999232,288.0457101999782,None,None,18.8,36.0,,,,95,001,2024-09-17_16h36.08.654,Coldplate_v74,2024.1.5,60,2024-09-17 16h36.52.746446 +0200,
141,0,141,0,2024-09-17_16:41:40.715880,,,,288.1115037999116,290.0458792001009,None,None,18.6,37.0,,,,95,001,2024-09-17_16h36.08.654,Coldplate_v74,2024.1.5,60,2024-09-17 16h36.52.746446 +0200,
142,0,142,0,2024-09-17_16:41:42.718773,,,,290.1119727003388,292.0446700002067,None,None,18.5,38.0,,,,95,001,2024-09-17_16h36.08.654,Coldplate_v74,2024.1.5,60,2024-09-17 16h36.52.746446 +0200,
143,0,143,0,2024-09-17_16:41:44.714030,,,,292.1096375002526,294.06225119996816,None,None,18.3,39.0,,,,95,001,2024-09-17_16h36.08.654,Coldplate_v74,2024.1.5,60,2024-09-17 16h36.52.746446 +0200,
144,0,144,0,2024-09-17_16:41:46.731611,,,,294.1279143001884,296.0616220002994,None,None,18.2,43.0,,,,95,001,2024-09-17_16h36.08.654,Coldplate_v74,2024.1.5,60,2024-09-17 16h36.52.746446 +0200,
145,0,145,0,2024-09-17_16:41:48.734676,,,,296.1276120003313,298.04497350007296,None,None,18.0,47.0,,,,95,001,2024-09-17_16h36.08.654,Coldplate_v74,2024.1.5,60,2024-09-17 16h36.52.746446 +0200,
146,0,146,0,2024-09-17_16:41:50.717255,,,,298.11102190008387,300.0643678000197,None,None,17.900000000000002,50.0,,,,95,001,2024-09-17_16h36.08.654,Coldplate_v74,2024.1.5,60,2024-09-17 16h36.52.746446 +0200,
147,0,147,0,2024-09-17_16:41:52.735150,,,,300.13034670008346,302.06237719999626,None,None,17.7,52.0,,,,95,001,2024-09-17_16h36.08.654,Coldplate_v74,2024.1.5,60,2024-09-17 16h36.52.746446 +0200,
148,0,148,0,2024-09-17_16:41:54.735384,,,,302.12941100029275,304.0458237999119,None,None,17.6,52.0,,,,95,001,2024-09-17_16h36.08.654,Coldplate_v74,2024.1.5,60,2024-09-17 16h36.52.746446 +0200,
149,0,149,0,2024-09-17_16:41:56.717005,,,,304.1113982000388,306.0639753001742,None,None,17.400000000000002,52.0,,,,95,001,2024-09-17_16h36.08.654,Coldplate_v74,2024.1.5,60,2024-09-17 16h36.52.746446 +0200,
150,0,150,0,2024-09-17_16:41:58.734844,,,,306.12819739989936,308.045385400299,None,None,17.3,53.0,,,,95,001,2024-09-17_16h36.08.654,Coldplate_v74,2024.1.5,60,2024-09-17 16h36.52.746446 +0200,
151,0,151,0,2024-09-17_16:42:00.715707,,,,308.1122004003264,310.06312010018155,None,None,17.2,53.0,,,,95,001,2024-09-17_16h36.08.654,Coldplate_v74,2024.1.5,60,2024-09-17 16h36.52.746446 +0200,
152,0,152,0,2024-09-17_16:42:02.733193,,,,310.1283855000511,312.06293629994616,None,None,17.0,53.0,,,,95,001,2024-09-17_16h36.08.654,Coldplate_v74,2024.1.5,60,2024-09-17 16h36.52.746446 +0200,
153,0,153,0,2024-09-17_16:42:04.728581,,,,312.1269950000569,314.06111979996786,None,None,16.900000000000002,54.0,,,,95,001,2024-09-17_16h36.08.654,Coldplate_v74,2024.1.5,60,2024-09-17 16h36.52.746446 +0200,
154,0,154,0,2024-09-17_16:42:06.726971,,,,314.1273917001672,316.0611451002769,None,None,16.8,55.0,,,,95,001,2024-09-17_16h36.08.654,Coldplate_v74,2024.1.5,60,2024-09-17 16h36.52.746446 +0200,
155,0,155,0,2024-09-17_16:42:08.731282,,,,316.1255538002588,318.0617527998984,None,None,16.6,54.0,,,,95,001,2024-09-17_16h36.08.654,Coldplate_v74,2024.1.5,60,2024-09-17 16h36.52.746446 +0200,
156,0,156,0,2024-09-17_16:42:10.732864,,,,318.1293122000061,320.0630236999132,None,None,16.5,55.0,,,,95,001,2024-09-17_16h36.08.654,Coldplate_v74,2024.1.5,60,2024-09-17 16h36.52.746446 +0200,
157,0,157,0,2024-09-17_16:42:12.735346,,,,320.13059050031006,322.0608816999011,None,None,16.3,55.0,,,,95,001,2024-09-17_16h36.08.654,Coldplate_v74,2024.1.5,60,2024-09-17 16h36.52.746446 +0200,
158,0,158,0,2024-09-17_16:42:14.731705,,,,322.12575930031016,324.0600235001184,None,None,16.2,56.0,,,,95,001,2024-09-17_16h36.08.654,Coldplate_v74,2024.1.5,60,2024-09-17 16h36.52.746446 +0200,
159,0,159,0,2024-09-17_16:42:16.730932,,,,324.1268070000224,326.0600879001431,None,None,16.0,56.0,,,,95,001,2024-09-17_16h36.08.654,Coldplate_v74,2024.1.5,60,2024-09-17 16h36.52.746446 +0200,
160,0,160,0,2024-09-17_16:42:18.729646,,,,326.12624070001766,328.0603682999499,None,None,15.9,56.0,,,,95,001,2024-09-17_16h36.08.654,Coldplate_v74,2024.1.5,60,2024-09-17 16h36.52.746446 +0200,
161,0,161,0,2024-09-17_16:42:20.730193,,,,328.12519300030544,330.05990960029885,None,None,15.700000000000001,56.0,,,,95,001,2024-09-17_16h36.08.654,Coldplate_v74,2024.1.5,60,2024-09-17 16h36.52.746446 +0200,
162,0,162,0,2024-09-17_16:42:22.733462,,,,330.12794520007446,332.0593443000689,None,None,15.600000000000001,60.0,,,,95,001,2024-09-17_16h36.08.654,Coldplate_v74,2024.1.5,60,2024-09-17 16h36.52.746446 +0200,
163,0,163,0,2024-09-17_16:42:24.727867,,,,332.12521529989317,334.06212530005723,None,None,15.5,60.0,,,,95,001,2024-09-17_16h36.08.654,Coldplate_v74,2024.1.5,60,2024-09-17 16h36.52.746446 +0200,
164,0,164,0,2024-09-17_16:42:26.734384,,,,334.12688940018415,336.06301779998466,None,None,15.3,61.0,,,,95,001,2024-09-17_16h36.08.654,Coldplate_v74,2024.1.5,60,2024-09-17 16h36.52.746446 +0200,
165,0,165,0,2024-09-17_16:42:28.732952,,,,336.12715499987826,338.05986530007794,None,None,15.200000000000001,62.0,,,,95,001,2024-09-17_16h36.08.654,Coldplate_v74,2024.1.5,60,2024-09-17 16h36.52.746446 +0200,
166,0,166,0,2024-09-17_16:42:30.730794,,,,338.1255856002681,340.0597935002297,None,None,15.0,62.0,,,,95,001,2024-09-17_16h36.08.654,Coldplate_v74,2024.1.5,60,2024-09-17 16h36.52.746446 +0200,
167,0,167,0,2024-09-17_16:42:32.723312,,,,340.12300160015,342.0603380999528,None,None,14.9,63.0,,,,95,001,2024-09-17_16h36.08.654,Coldplate_v74,2024.1.5,60,2024-09-17 16h36.52.746446 +0200,
168,0,168,0,2024-09-17_16:42:34.729594,,,,342.1272058002651,344.05948550021276,None,None,14.8,63.0,,,,95,001,2024-09-17_16h36.08.654,Coldplate_v74,2024.1.5,60,2024-09-17 16h36.52.746446 +0200,
169,0,169,0,2024-09-17_16:42:36.728723,,,,344.1251520002261,346.06025899993256,None,None,14.600000000000001,64.0,,,,95,001,2024-09-17_16h36.08.654,Coldplate_v74,2024.1.5,60,2024-09-17 16h36.52.746446 +0200,
170,0,170,0,2024-09-17_16:42:38.733017,,,,346.1261803000234,348.0595150999725,None,None,14.5,64.0,,,,95,001,2024-09-17_16h36.08.654,Coldplate_v74,2024.1.5,60,2024-09-17 16h36.52.746446 +0200,
171,0,171,0,2024-09-17_16:42:40.729408,,,,348.125474399887,350.0602142000571,None,None,14.3,65.0,,,,95,001,2024-09-17_16h36.08.654,Coldplate_v74,2024.1.5,60,2024-09-17 16h36.52.746446 +0200,
172,0,172,0,2024-09-17_16:42:42.730901,,,,350.1253150003031,352.06093570031226,None,None,14.200000000000001,64.0,,,,95,001,2024-09-17_16h36.08.654,Coldplate_v74,2024.1.5,60,2024-09-17 16h36.52.746446 +0200,
173,0,173,0,2024-09-17_16:42:44.728568,,,,352.12606050027534,354.06068029999733,None,None,14.100000000000001,65.0,,,,95,001,2024-09-17_16h36.08.654,Coldplate_v74,2024.1.5,60,2024-09-17 16h36.52.746446 +0200,
174,0,174,0,2024-09-17_16:42:46.733967,,,,354.1264375001192,356.0606746003032,None,None,14.0,66.0,,,,95,001,2024-09-17_16h36.08.654,Coldplate_v74,2024.1.5,60,2024-09-17 16h36.52.746446 +0200,
175,0,175,0,2024-09-17_16:42:48.731143,,,,356.1261819000356,358.05827490007505,None,None,13.8,66.0,,,,95,001,2024-09-17_16h36.08.654,Coldplate_v74,2024.1.5,60,2024-09-17 16h36.52.746446 +0200,
176,0,176,0,2024-09-17_16:42:50.730775,,,,358.12395180016756,360.0594550999813,None,None,13.700000000000001,66.0,,,,95,001,2024-09-17_16h36.08.654,Coldplate_v74,2024.1.5,60,2024-09-17 16h36.52.746446 +0200,
177,0,177,0,2024-09-17_16:42:52.728739,,,,360.12405500002205,362.0597137999721,None,None,13.600000000000001,67.0,,,,95,001,2024-09-17_16h36.08.654,Coldplate_v74,2024.1.5,60,2024-09-17 16h36.52.746446 +0200,
178,0,178,0,2024-09-17_16:42:54.731171,,,,362.12600800022483,364.058997400105,None,None,13.4,67.0,,,,95,001,2024-09-17_16h36.08.654,Coldplate_v74,2024.1.5,60,2024-09-17 16h36.52.746446 +0200,
179,0,179,0,2024-09-17_16:42:56.727242,,,,364.1256094002165,366.0605603000149,None,None,13.3,67.0,,,,95,001,2024-09-17_16h36.08.654,Coldplate_v74,2024.1.5,60,2024-09-17 16h36.52.746446 +0200,
180,0,180,0,2024-09-17_16:42:58.730278,,,,366.1261211000383,368.06028910027817,None,None,13.200000000000001,67.0,,,,95,001,2024-09-17_16h36.08.654,Coldplate_v74,2024.1.5,60,2024-09-17 16h36.52.746446 +0200,
181,0,181,0,2024-09-17_16:43:00.729903,,,,368.1255243001506,370.05967620015144,None,None,13.100000000000001,68.0,,,,95,001,2024-09-17_16h36.08.654,Coldplate_v74,2024.1.5,60,2024-09-17 16h36.52.746446 +0200,
182,0,182,0,2024-09-17_16:43:02.728760,,,,370.1237854002975,372.05966800032184,None,None,12.9,69.0,,,,95,001,2024-09-17_16h36.08.654,Coldplate_v74,2024.1.5,60,2024-09-17 16h36.52.746446 +0200,
183,0,183,0,2024-09-17_16:43:04.731638,,,,372.1269543999806,374.0573797002435,None,None,12.8,69.0,,,,95,001,2024-09-17_16h36.08.654,Coldplate_v74,2024.1.5,60,2024-09-17 16h36.52.746446 +0200,
184,0,184,0,2024-09-17_16:43:06.720464,,,,374.1212014001794,376.05810370016843,None,None,12.700000000000001,70.0,,,,95,001,2024-09-17_16h36.08.654,Coldplate_v74,2024.1.5,60,2024-09-17 16h36.52.746446 +0200,
185,0,185,0,2024-09-17_16:43:08.730119,,,,376.1239017001353,378.05746670020744,None,None,12.600000000000001,70.0,,,,95,001,2024-09-17_16h36.08.654,Coldplate_v74,2024.1.5,60,2024-09-17 16h36.52.746446 +0200,
186,0,186,0,2024-09-17_16:43:10.725873,,,,378.12300950009376,380.0582781000994,None,None,12.5,70.0,,,,95,001,2024-09-17_16h36.08.654,Coldplate_v74,2024.1.5,60,2024-09-17 16h36.52.746446 +0200,
187,0,187,0,2024-09-17_16:43:12.726878,,,,380.12368790013716,382.05712180025876,None,None,12.4,70.0,,,,95,001,2024-09-17_16h36.08.654,Coldplate_v74,2024.1.5,60,2024-09-17 16h36.52.746446 +0200,
188,0,188,0,2024-09-17_16:43:14.721307,,,,382.1215520002879,384.0595416002907,None,None,12.3,70.0,,,,95,001,2024-09-17_16h36.08.654,Coldplate_v74,2024.1.5,60,2024-09-17 16h36.52.746446 +0200,
189,0,189,0,2024-09-17_16:43:16.729211,,,,384.124557599891,386.05810720007867,None,None,12.200000000000001,71.0,,,,95,001,2024-09-17_16h36.08.654,Coldplate_v74,2024.1.5,60,2024-09-17 16h36.52.746446 +0200,
190,0,190,0,2024-09-17_16:43:18.722975,,,,386.122229100205,388.05711070029065,None,None,12.100000000000001,72.0,,,,95,001,2024-09-17_16h36.08.654,Coldplate_v74,2024.1.5,60,2024-09-17 16h36.52.746446 +0200,
191,0,191,0,2024-09-17_16:43:20.731139,,,,388.12444959999993,390.05882730009034,None,None,11.9,72.0,,,,95,001,2024-09-17_16h36.08.654,Coldplate_v74,2024.1.5,60,2024-09-17 16h36.52.746446 +0200,
192,0,192,0,2024-09-17_16:43:22.730344,,,,390.12356209987774,392.05915040010586,None,None,11.8,73.0,,,,95,001,2024-09-17_16h36.08.654,Coldplate_v74,2024.1.5,60,2024-09-17 16h36.52.746446 +0200,
193,0,193,0,2024-09-17_16:43:24.730501,,,,392.1244712001644,394.05883220024407,None,None,11.700000000000001,73.0,,,,95,001,2024-09-17_16h36.08.654,Coldplate_v74,2024.1.5,60,2024-09-17 16h36.52.746446 +0200,
194,0,194,0,2024-09-17_16:43:26.726920,,,,394.1232219999656,396.0578127000481,None,None,11.600000000000001,74.0,,,,95,001,2024-09-17_16h36.08.654,Coldplate_v74,2024.1.5,60,2024-09-17 16h36.52.746446 +0200,
195,0,195,0,2024-09-17_16:43:28.727403,,,,396.122645100113,398.0582722001709,75.0,None,11.5,75.0,,,,95,001,2024-09-17_16h36.08.654,Coldplate_v74,2024.1.5,60,2024-09-17 16h36.52.746446 +0200,
196,0,196,0,2024-09-17_16:43:30.720486,,,,398.12236070027575,400.06162150017917,None,None,11.4,None,,,,95,001,2024-09-17_16h36.08.654,Coldplate_v74,2024.1.5,60,2024-09-17 16h36.52.746446 +0200,
197,0,197,0,2024-09-17_16:43:32.725929,,,,400.1276366999373,402.0609503001906,None,None,11.200000000000001,None,,,,95,001,2024-09-17_16h36.08.654,Coldplate_v74,2024.1.5,60,2024-09-17 16h36.52.746446 +0200,
198,0,198,0,2024-09-17_16:43:34.733319,,,,402.1264821998775,404.0587275000289,None,None,11.100000000000001,None,,,,95,001,2024-09-17_16h36.08.654,Coldplate_v74,2024.1.5,60,2024-09-17 16h36.52.746446 +0200,
199,0,199,0,2024-09-17_16:43:36.719095,,,,404.1223257998936,406.06197699997574,None,None,10.9,None,,,,95,001,2024-09-17_16h36.08.654,Coldplate_v74,2024.1.5,60,2024-09-17 16h36.52.746446 +0200,
200,0,200,0,2024-09-17_16:43:38.733318,,,,406.1285252002999,408.0596729000099,None,None,10.700000000000001,None,,,,95,001,2024-09-17_16h36.08.654,Coldplate_v74,2024.1.5,60,2024-09-17 16h36.52.746446 +0200,
201,0,201,0,2024-09-17_16:43:40.722664,,,,408.12479500006884,410.05969300027937,None,None,10.600000000000001,None,,,,95,001,2024-09-17_16h36.08.654,Coldplate_v74,2024.1.5,60,2024-09-17 16h36.52.746446 +0200,
202,0,202,0,2024-09-17_16:43:42.724487,,,,410.1254552002065,412.05979570001364,None,None,10.4,None,,,,95,001,2024-09-17_16h36.08.654,Coldplate_v74,2024.1.5,60,2024-09-17 16h36.52.746446 +0200,
203,0,203,0,2024-09-17_16:43:44.726018,,,,412.12514939997345,414.0582709000446,None,None,10.3,None,,,,95,001,2024-09-17_16h36.08.654,Coldplate_v74,2024.1.5,60,2024-09-17 16h36.52.746446 +0200,
204,0,204,0,2024-09-17_16:43:46.723657,,,,414.1244617002085,416.0597633998841,None,2,10.200000000000001,None,,,,95,001,2024-09-17_16h36.08.654,Coldplate_v74,2024.1.5,60,2024-09-17 16h36.52.746446 +0200,
,,,,,,,,,,,,,,416.17567430017516,416.1818865002133,426.0516785001382,95,001,2024-09-17_16h36.08.654,Coldplate_v74,2024.1.5,60,2024-09-17 16h36.52.746446 +0200,
