rating_loop.thisRepN,rating_loop.thisTrialN,rating_loop.thisN,rating_loop.thisIndex,thisRow.t,notes,WelcomeScreen.started,WelcomeScreen.stopped,trial.started,trial.stopped,sliderRating.response,slider_stop.response,temperature_PT,sliderRating.markerPos,GoodbyScreen.started,text.started,GoodbyScreen.stopped,participant,session,date,expName,psychopyVersion,frameRate,expStart,
,,,,,,0.09889260027557611,139.1684814002365,,,,,,,,,,95,003,2024-09-18_16h45.08.013,Waermeplatte_v76,2024.1.5,60,2024-09-18 16h45.28.550248 +0200,
,,,,,,,,,,,,,,,,,95,003,2024-09-18_16h45.08.013,Waermeplatte_v76,2024.1.5,60,2024-09-18 16h45.28.550248 +0200,
0,0,0,0,2024-09-18_16:47:48.159896,,,,139.68412430025637,141.69136640010402,None,None,34.7,None,,,,95,003,2024-09-18_16h45.08.013,Waermeplatte_v76,2024.1.5,60,2024-09-18 16h45.28.550248 +0200,
1,0,1,0,2024-09-18_16:47:50.226313,,,,141.7564341998659,143.69134829984978,None,None,34.7,None,,,,95,003,2024-09-18_16h45.08.013,Waermeplatte_v76,2024.1.5,60,2024-09-18 16h45.28.550248 +0200,
2,0,2,0,2024-09-18_16:47:52.228638,,,,143.75583370029926,145.69171749986708,None,None,34.7,None,,,,95,003,2024-09-18_16h45.08.013,Waermeplatte_v76,2024.1.5,60,2024-09-18 16h45.28.550248 +0200,
3,0,3,0,2024-09-18_16:47:54.228663,,,,145.7563066999428,147.68904930027202,None,None,34.800000000000004,None,,,,95,003,2024-09-18_16h45.08.013,Waermeplatte_v76,2024.1.5,60,2024-09-18 16h45.28.550248 +0200,
4,0,4,0,2024-09-18_16:47:56.222141,,,,147.75222899997607,149.68886739993468,None,None,34.800000000000004,None,,,,95,003,2024-09-18_16h45.08.013,Waermeplatte_v76,2024.1.5,60,2024-09-18 16h45.28.550248 +0200,
5,0,5,0,2024-09-18_16:47:58.218732,,,,149.75165340024978,151.68962500011548,None,None,34.800000000000004,None,,,,95,003,2024-09-18_16h45.08.013,Waermeplatte_v76,2024.1.5,60,2024-09-18 16h45.28.550248 +0200,
6,0,6,0,2024-09-18_16:48:00.224110,,,,151.75316719990224,153.69096200028434,None,None,34.800000000000004,None,,,,95,003,2024-09-18_16h45.08.013,Waermeplatte_v76,2024.1.5,60,2024-09-18 16h45.28.550248 +0200,
7,0,7,0,2024-09-18_16:48:02.225723,,,,153.75491240015253,155.6889575002715,None,None,34.800000000000004,None,,,,95,003,2024-09-18_16h45.08.013,Waermeplatte_v76,2024.1.5,60,2024-09-18 16h45.28.550248 +0200,
8,0,8,0,2024-09-18_16:48:04.222172,,,,155.75227950001135,157.6912449002266,None,None,34.7,None,,,,95,003,2024-09-18_16h45.08.013,Waermeplatte_v76,2024.1.5,60,2024-09-18 16h45.28.550248 +0200,
9,0,9,0,2024-09-18_16:48:06.225475,,,,157.75503230001777,159.69101179996505,None,None,34.7,None,,,,95,003,2024-09-18_16h45.08.013,Waermeplatte_v76,2024.1.5,60,2024-09-18 16h45.28.550248 +0200,
10,0,10,0,2024-09-18_16:48:08.230558,,,,159.75498740002513,161.68858380010352,None,None,34.7,None,,,,95,003,2024-09-18_16h45.08.013,Waermeplatte_v76,2024.1.5,60,2024-09-18 16h45.28.550248 +0200,
11,0,11,0,2024-09-18_16:48:10.223166,,,,161.75237159989774,163.68770200014114,None,None,34.7,None,,,,95,003,2024-09-18_16h45.08.013,Waermeplatte_v76,2024.1.5,60,2024-09-18 16h45.28.550248 +0200,
12,0,12,0,2024-09-18_16:48:12.224276,,,,163.7514301999472,165.68772300006822,None,None,34.7,None,,,,95,003,2024-09-18_16h45.08.013,Waermeplatte_v76,2024.1.5,60,2024-09-18 16h45.28.550248 +0200,
13,0,13,0,2024-09-18_16:48:14.227468,,,,165.7516963998787,167.68985169986263,None,None,34.7,None,,,,95,003,2024-09-18_16h45.08.013,Waermeplatte_v76,2024.1.5,60,2024-09-18 16h45.28.550248 +0200,
14,0,14,0,2024-09-18_16:48:16.227501,,,,167.75313389999792,169.68938740016893,None,None,34.6,None,,,,95,003,2024-09-18_16h45.08.013,Waermeplatte_v76,2024.1.5,60,2024-09-18 16h45.28.550248 +0200,
15,0,15,0,2024-09-18_16:48:18.229988,,,,169.7548028002493,171.6875614002347,None,None,34.6,None,,,,95,003,2024-09-18_16h45.08.013,Waermeplatte_v76,2024.1.5,60,2024-09-18 16h45.28.550248 +0200,
16,0,16,0,2024-09-18_16:48:20.222095,,,,171.75074100028723,173.68917819997296,None,None,34.6,None,,,,95,003,2024-09-18_16h45.08.013,Waermeplatte_v76,2024.1.5,60,2024-09-18 16h45.28.550248 +0200,
17,0,17,0,2024-09-18_16:48:22.227644,,,,173.75427770009264,175.68892450025305,None,None,34.7,None,,,,95,003,2024-09-18_16h45.08.013,Waermeplatte_v76,2024.1.5,60,2024-09-18 16h45.28.550248 +0200,
18,0,18,0,2024-09-18_16:48:24.229771,,,,175.75359630025923,177.6895264000632,None,None,34.6,None,,,,95,003,2024-09-18_16h45.08.013,Waermeplatte_v76,2024.1.5,60,2024-09-18 16h45.28.550248 +0200,
19,0,19,0,2024-09-18_16:48:26.230722,,,,177.75329839996994,179.68715219991282,None,None,34.6,None,,,,95,003,2024-09-18_16h45.08.013,Waermeplatte_v76,2024.1.5,60,2024-09-18 16h45.28.550248 +0200,
20,0,20,0,2024-09-18_16:48:28.227924,,,,179.7508735000156,181.68992190016434,None,None,34.6,None,,,,95,003,2024-09-18_16h45.08.013,Waermeplatte_v76,2024.1.5,60,2024-09-18 16h45.28.550248 +0200,
21,0,21,0,2024-09-18_16:48:30.228810,,,,181.7547539002262,183.68967129988596,None,None,34.7,None,,,,95,003,2024-09-18_16h45.08.013,Waermeplatte_v76,2024.1.5,60,2024-09-18 16h45.28.550248 +0200,
22,0,22,0,2024-09-18_16:48:32.231514,,,,183.75422780029476,185.6897785998881,None,None,34.7,None,,,,95,003,2024-09-18_16h45.08.013,Waermeplatte_v76,2024.1.5,60,2024-09-18 16h45.28.550248 +0200,
23,0,23,0,2024-09-18_16:48:34.230877,,,,185.75475670024753,187.6896983999759,None,None,34.7,None,,,,95,003,2024-09-18_16h45.08.013,Waermeplatte_v76,2024.1.5,60,2024-09-18 16h45.28.550248 +0200,
24,0,24,0,2024-09-18_16:48:36.230134,,,,187.75371940014884,189.68934709997848,None,None,34.7,None,,,,95,003,2024-09-18_16h45.08.013,Waermeplatte_v76,2024.1.5,60,2024-09-18 16h45.28.550248 +0200,
25,0,25,0,2024-09-18_16:48:38.228087,,,,189.7542802998796,191.68870380008593,None,None,34.7,None,,,,95,003,2024-09-18_16h45.08.013,Waermeplatte_v76,2024.1.5,60,2024-09-18 16h45.28.550248 +0200,
26,0,26,0,2024-09-18_16:48:40.226070,,,,191.7528456998989,193.68928170017898,None,None,34.7,None,,,,95,003,2024-09-18_16h45.08.013,Waermeplatte_v76,2024.1.5,60,2024-09-18 16h45.28.550248 +0200,
27,0,27,0,2024-09-18_16:48:42.226923,,,,193.75304990028962,195.68777329986915,None,None,34.7,None,,,,95,003,2024-09-18_16h45.08.013,Waermeplatte_v76,2024.1.5,60,2024-09-18 16h45.28.550248 +0200,
28,0,28,0,2024-09-18_16:48:44.221624,,,,195.75172139983624,197.68820680025965,None,None,34.7,None,,,,95,003,2024-09-18_16h45.08.013,Waermeplatte_v76,2024.1.5,60,2024-09-18 16h45.28.550248 +0200,
29,0,29,0,2024-09-18_16:48:46.223954,,,,197.75323140015826,199.68624120019376,None,None,34.7,None,,,,95,003,2024-09-18_16h45.08.013,Waermeplatte_v76,2024.1.5,60,2024-09-18 16h45.28.550248 +0200,
30,0,30,0,2024-09-18_16:48:48.220314,,,,199.75009960029274,201.68415210023522,None,None,34.800000000000004,42.0,,,,95,003,2024-09-18_16h45.08.013,Waermeplatte_v76,2024.1.5,60,2024-09-18 16h45.28.550248 +0200,
31,0,31,0,2024-09-18_16:48:50.223486,,,,201.74816170008853,203.68308610003442,None,None,34.800000000000004,45.0,,,,95,003,2024-09-18_16h45.08.013,Waermeplatte_v76,2024.1.5,60,2024-09-18 16h45.28.550248 +0200,
32,0,32,0,2024-09-18_16:48:52.225313,,,,203.74889030028135,205.68503070017323,None,None,34.800000000000004,14.0,,,,95,003,2024-09-18_16h45.08.013,Waermeplatte_v76,2024.1.5,60,2024-09-18 16h45.28.550248 +0200,
33,0,33,0,2024-09-18_16:48:54.225226,,,,205.74874710012227,207.6846231999807,None,None,34.800000000000004,7.0,,,,95,003,2024-09-18_16h45.08.013,Waermeplatte_v76,2024.1.5,60,2024-09-18 16h45.28.550248 +0200,
34,0,34,0,2024-09-18_16:48:56.225683,,,,207.7475792001933,209.68392380001023,5.0,None,34.800000000000004,1.0,,,,95,003,2024-09-18_16h45.08.013,Waermeplatte_v76,2024.1.5,60,2024-09-18 16h45.28.550248 +0200,
35,0,35,0,2024-09-18_16:48:58.224620,,,,209.7478550001979,211.68392769992352,None,None,34.800000000000004,66.0,,,,95,003,2024-09-18_16h45.08.013,Waermeplatte_v76,2024.1.5,60,2024-09-18 16h45.28.550248 +0200,
36,0,36,0,2024-09-18_16:49:00.218815,,,,211.74723630025983,213.686806099955,0.0,None,34.9,0.0,,,,95,003,2024-09-18_16h45.08.013,Waermeplatte_v76,2024.1.5,60,2024-09-18 16h45.28.550248 +0200,
37,0,37,0,2024-09-18_16:49:02.225825,,,,213.7508763000369,215.68714739987627,None,None,34.9,None,,,,95,003,2024-09-18_16h45.08.013,Waermeplatte_v76,2024.1.5,60,2024-09-18 16h45.28.550248 +0200,
38,0,38,0,2024-09-18_16:49:04.222617,,,,215.7510661999695,217.68805650016293,None,None,34.9,None,,,,95,003,2024-09-18_16h45.08.013,Waermeplatte_v76,2024.1.5,60,2024-09-18 16h45.28.550248 +0200,
39,0,39,0,2024-09-18_16:49:06.229278,,,,217.7531087002717,219.6856388002634,None,None,34.9,None,,,,95,003,2024-09-18_16h45.08.013,Waermeplatte_v76,2024.1.5,60,2024-09-18 16h45.28.550248 +0200,
40,0,40,0,2024-09-18_16:49:08.221692,,,,219.74929590011016,221.68532920023426,None,None,35.0,None,,,,95,003,2024-09-18_16h45.08.013,Waermeplatte_v76,2024.1.5,60,2024-09-18 16h45.28.550248 +0200,
41,0,41,0,2024-09-18_16:49:10.223922,,,,221.74936500005424,223.68318150006235,None,None,35.0,35.0,,,,95,003,2024-09-18_16h45.08.013,Waermeplatte_v76,2024.1.5,60,2024-09-18 16h45.28.550248 +0200,
42,0,42,0,2024-09-18_16:49:12.218462,,,,223.74633120000362,225.6861610999331,None,None,35.0,None,,,,95,003,2024-09-18_16h45.08.013,Waermeplatte_v76,2024.1.5,60,2024-09-18 16h45.28.550248 +0200,
43,0,43,0,2024-09-18_16:49:14.219188,,,,225.74967160029337,227.68734160019085,None,None,35.0,None,,,,95,003,2024-09-18_16h45.08.013,Waermeplatte_v76,2024.1.5,60,2024-09-18 16h45.28.550248 +0200,
44,0,44,0,2024-09-18_16:49:16.221230,,,,227.75082750013098,229.6828459003009,None,None,35.0,6.0,,,,95,003,2024-09-18_16h45.08.013,Waermeplatte_v76,2024.1.5,60,2024-09-18 16h45.28.550248 +0200,
45,0,45,0,2024-09-18_16:49:18.223232,,,,229.74646050017327,231.68270329991356,None,None,35.0,88.0,,,,95,003,2024-09-18_16h45.08.013,Waermeplatte_v76,2024.1.5,60,2024-09-18 16h45.28.550248 +0200,
46,0,46,0,2024-09-18_16:49:20.220398,,,,231.7473649000749,233.6856168000959,94.0,None,35.0,94.0,,,,95,003,2024-09-18_16h45.08.013,Waermeplatte_v76,2024.1.5,60,2024-09-18 16h45.28.550248 +0200,
47,0,47,0,2024-09-18_16:49:22.219277,,,,233.74943850003183,235.6862077000551,None,None,35.0,None,,,,95,003,2024-09-18_16h45.08.013,Waermeplatte_v76,2024.1.5,60,2024-09-18 16h45.28.550248 +0200,
48,0,48,0,2024-09-18_16:49:24.219353,,,,235.74968190025538,237.68351260013878,None,None,35.0,21.0,,,,95,003,2024-09-18_16h45.08.013,Waermeplatte_v76,2024.1.5,60,2024-09-18 16h45.28.550248 +0200,
49,0,49,0,2024-09-18_16:49:26.224362,,,,237.74748580018058,239.68584839999676,85.0,None,35.0,85.0,,,,95,003,2024-09-18_16h45.08.013,Waermeplatte_v76,2024.1.5,60,2024-09-18 16h45.28.550248 +0200,
50,0,50,0,2024-09-18_16:49:28.219258,,,,239.74914540024474,241.68668329995126,None,None,35.0,None,,,,95,003,2024-09-18_16h45.08.013,Waermeplatte_v76,2024.1.5,60,2024-09-18 16h45.28.550248 +0200,
51,0,51,0,2024-09-18_16:49:30.228636,,,,241.7503454000689,243.6877104002051,None,None,35.0,None,,,,95,003,2024-09-18_16h45.08.013,Waermeplatte_v76,2024.1.5,60,2024-09-18 16h45.28.550248 +0200,
52,0,52,0,2024-09-18_16:49:32.221221,,,,243.75086410017684,245.68424850003794,None,None,35.0,None,,,,95,003,2024-09-18_16h45.08.013,Waermeplatte_v76,2024.1.5,60,2024-09-18 16h45.28.550248 +0200,
53,0,53,0,2024-09-18_16:49:34.217267,,,,245.7477016998455,247.68718839995563,None,None,35.0,None,,,,95,003,2024-09-18_16h45.08.013,Waermeplatte_v76,2024.1.5,60,2024-09-18 16h45.28.550248 +0200,
54,0,54,0,2024-09-18_16:49:36.225282,,,,247.75071529997513,249.68383700028062,None,None,35.0,None,,,,95,003,2024-09-18_16h45.08.013,Waermeplatte_v76,2024.1.5,60,2024-09-18 16h45.28.550248 +0200,
55,0,55,0,2024-09-18_16:49:38.218858,,,,249.74745570030063,251.68620140012354,None,None,35.0,None,,,,95,003,2024-09-18_16h45.08.013,Waermeplatte_v76,2024.1.5,60,2024-09-18 16h45.28.550248 +0200,
56,0,56,0,2024-09-18_16:49:40.218813,,,,251.7494262000546,253.68192230025306,None,None,35.1,3.0,,,,95,003,2024-09-18_16h45.08.013,Waermeplatte_v76,2024.1.5,60,2024-09-18 16h45.28.550248 +0200,
57,0,57,0,2024-09-18_16:49:42.226503,,,,253.74591749999672,255.68240230018273,None,None,35.0,2.0,,,,95,003,2024-09-18_16h45.08.013,Waermeplatte_v76,2024.1.5,60,2024-09-18 16h45.28.550248 +0200,
58,0,58,0,2024-09-18_16:49:44.222522,,,,255.7452739002183,257.6816606000066,None,None,35.0,2.0,,,,95,003,2024-09-18_16h45.08.013,Waermeplatte_v76,2024.1.5,60,2024-09-18 16h45.28.550248 +0200,
59,0,59,0,2024-09-18_16:49:46.223388,,,,257.7452295999974,259.6818241002038,None,None,35.0,2.0,,,,95,003,2024-09-18_16h45.08.013,Waermeplatte_v76,2024.1.5,60,2024-09-18 16h45.28.550248 +0200,
60,0,60,0,2024-09-18_16:49:48.220230,,,,259.74541450012475,261.6816954999231,None,None,35.0,3.0,,,,95,003,2024-09-18_16h45.08.013,Waermeplatte_v76,2024.1.5,60,2024-09-18 16h45.28.550248 +0200,
61,0,61,0,2024-09-18_16:49:50.223641,,,,261.7460504001938,263.68153920024633,None,None,35.0,2.0,,,,95,003,2024-09-18_16h45.08.013,Waermeplatte_v76,2024.1.5,60,2024-09-18 16h45.28.550248 +0200,
62,0,62,0,2024-09-18_16:49:52.218891,,,,263.74490150017664,265.68195659993216,None,None,35.0,2.0,,,,95,003,2024-09-18_16h45.08.013,Waermeplatte_v76,2024.1.5,60,2024-09-18 16h45.28.550248 +0200,
63,0,63,0,2024-09-18_16:49:54.221474,,,,265.7466084002517,267.68207379989326,None,None,35.0,3.0,,,,95,003,2024-09-18_16h45.08.013,Waermeplatte_v76,2024.1.5,60,2024-09-18 16h45.28.550248 +0200,
64,0,64,0,2024-09-18_16:49:56.221735,,,,267.74623910011724,269.67989780008793,None,None,35.0,3.0,,,,95,003,2024-09-18_16h45.08.013,Waermeplatte_v76,2024.1.5,60,2024-09-18 16h45.28.550248 +0200,
65,0,65,0,2024-09-18_16:49:58.218323,,,,269.7435681000352,271.68153320020065,None,None,35.0,3.0,,,,95,003,2024-09-18_16h45.08.013,Waermeplatte_v76,2024.1.5,60,2024-09-18 16h45.28.550248 +0200,
66,0,66,0,2024-09-18_16:50:00.223291,,,,271.7458040001802,273.6816484001465,None,None,35.1,4.0,,,,95,003,2024-09-18_16h45.08.013,Waermeplatte_v76,2024.1.5,60,2024-09-18 16h45.28.550248 +0200,
67,0,67,0,2024-09-18_16:50:02.223511,,,,273.745678700041,275.6802554000169,None,None,35.1,4.0,,,,95,003,2024-09-18_16h45.08.013,Waermeplatte_v76,2024.1.5,60,2024-09-18 16h45.28.550248 +0200,
68,0,68,0,2024-09-18_16:50:04.216984,,,,275.7428548000753,277.67905679997057,None,None,35.1,4.0,,,,95,003,2024-09-18_16h45.08.013,Waermeplatte_v76,2024.1.5,60,2024-09-18 16h45.28.550248 +0200,
69,0,69,0,2024-09-18_16:50:06.218037,,,,277.7427946999669,279.68042240012437,None,None,35.2,4.0,,,,95,003,2024-09-18_16h45.08.013,Waermeplatte_v76,2024.1.5,60,2024-09-18 16h45.28.550248 +0200,
70,0,70,0,2024-09-18_16:50:08.222608,,,,279.74454799992964,281.68158490024507,None,None,35.300000000000004,4.0,,,,95,003,2024-09-18_16h45.08.013,Waermeplatte_v76,2024.1.5,60,2024-09-18 16h45.28.550248 +0200,
71,0,71,0,2024-09-18_16:50:10.224480,,,,281.7460606000386,283.679831400048,None,None,35.300000000000004,4.0,,,,95,003,2024-09-18_16h45.08.013,Waermeplatte_v76,2024.1.5,60,2024-09-18 16h45.28.550248 +0200,
72,0,72,0,2024-09-18_16:50:12.220846,,,,283.74401779985055,285.6809199000709,None,None,35.5,3.0,,,,95,003,2024-09-18_16h45.08.013,Waermeplatte_v76,2024.1.5,60,2024-09-18 16h45.28.550248 +0200,
73,0,73,0,2024-09-18_16:50:14.225790,,,,285.74678190005943,287.68007990019396,None,None,35.6,4.0,,,,95,003,2024-09-18_16h45.08.013,Waermeplatte_v76,2024.1.5,60,2024-09-18 16h45.28.550248 +0200,
74,0,74,0,2024-09-18_16:50:16.222051,,,,287.7444882001728,289.681588599924,None,None,35.7,3.0,,,,95,003,2024-09-18_16h45.08.013,Waermeplatte_v76,2024.1.5,60,2024-09-18 16h45.28.550248 +0200,
75,0,75,0,2024-09-18_16:50:18.222404,,,,289.7455341001041,291.6800517998636,None,None,35.9,3.0,,,,95,003,2024-09-18_16h45.08.013,Waermeplatte_v76,2024.1.5,60,2024-09-18 16h45.28.550248 +0200,
76,0,76,0,2024-09-18_16:50:20.220688,,,,291.74362839991227,293.6791965998709,None,None,36.0,3.0,,,,95,003,2024-09-18_16h45.08.013,Waermeplatte_v76,2024.1.5,60,2024-09-18 16h45.28.550248 +0200,
77,0,77,0,2024-09-18_16:50:22.222325,,,,293.74444400006905,295.6810828000307,None,None,36.2,4.0,,,,95,003,2024-09-18_16h45.08.013,Waermeplatte_v76,2024.1.5,60,2024-09-18 16h45.28.550248 +0200,
78,0,78,0,2024-09-18_16:50:24.223965,,,,295.74471020000055,297.68052030028775,None,None,36.4,4.0,,,,95,003,2024-09-18_16h45.08.013,Waermeplatte_v76,2024.1.5,60,2024-09-18 16h45.28.550248 +0200,
79,0,79,0,2024-09-18_16:50:26.222587,,,,297.74423780012876,299.6792307998985,None,None,36.6,4.0,,,,95,003,2024-09-18_16h45.08.013,Waermeplatte_v76,2024.1.5,60,2024-09-18 16h45.28.550248 +0200,
80,0,80,0,2024-09-18_16:50:28.221892,,,,299.7428271002136,301.6794612002559,None,None,36.800000000000004,4.0,,,,95,003,2024-09-18_16h45.08.013,Waermeplatte_v76,2024.1.5,60,2024-09-18 16h45.28.550248 +0200,
81,0,81,0,2024-09-18_16:50:30.220645,,,,301.74476590007544,303.6784455999732,None,None,37.0,4.0,,,,95,003,2024-09-18_16h45.08.013,Waermeplatte_v76,2024.1.5,60,2024-09-18 16h45.28.550248 +0200,
82,0,82,0,2024-09-18_16:50:32.216463,,,,303.7416790998541,305.67970340000466,None,None,37.2,4.0,,,,95,003,2024-09-18_16h45.08.013,Waermeplatte_v76,2024.1.5,60,2024-09-18 16h45.28.550248 +0200,
83,0,83,0,2024-09-18_16:50:34.222446,,,,305.74395549995825,307.6789859002456,None,None,37.4,4.0,,,,95,003,2024-09-18_16h45.08.013,Waermeplatte_v76,2024.1.5,60,2024-09-18 16h45.28.550248 +0200,
84,0,84,0,2024-09-18_16:50:36.216679,,,,307.7426072000526,309.6781334001571,None,None,37.6,5.0,,,,95,003,2024-09-18_16h45.08.013,Waermeplatte_v76,2024.1.5,60,2024-09-18 16h45.28.550248 +0200,
85,0,85,0,2024-09-18_16:50:38.219036,,,,309.7425094000064,311.67915769992396,None,None,37.800000000000004,4.0,,,,95,003,2024-09-18_16h45.08.013,Waermeplatte_v76,2024.1.5,60,2024-09-18 16h45.28.550248 +0200,
86,0,86,0,2024-09-18_16:50:40.221637,,,,311.7428393000737,313.67889000009745,None,None,38.0,4.0,,,,95,003,2024-09-18_16h45.08.013,Waermeplatte_v76,2024.1.5,60,2024-09-18 16h45.28.550248 +0200,
87,0,87,0,2024-09-18_16:50:42.220958,,,,313.74427649984136,315.67946150014177,None,None,38.2,4.0,,,,95,003,2024-09-18_16h45.08.013,Waermeplatte_v76,2024.1.5,60,2024-09-18 16h45.28.550248 +0200,
88,0,88,0,2024-09-18_16:50:44.220963,,,,315.74383749999106,317.68049219995737,None,None,38.400000000000006,4.0,,,,95,003,2024-09-18_16h45.08.013,Waermeplatte_v76,2024.1.5,60,2024-09-18 16h45.28.550248 +0200,
89,0,89,0,2024-09-18_16:50:46.218508,,,,317.7446714001708,319.67854100000113,None,None,38.6,3.0,,,,95,003,2024-09-18_16h45.08.013,Waermeplatte_v76,2024.1.5,60,2024-09-18 16h45.28.550248 +0200,
90,0,90,0,2024-09-18_16:50:48.215215,,,,319.74220400024205,321.6780139002949,None,None,38.800000000000004,3.0,,,,95,003,2024-09-18_16h45.08.013,Waermeplatte_v76,2024.1.5,60,2024-09-18 16h45.28.550248 +0200,
91,0,91,0,2024-09-18_16:50:50.218881,,,,321.74174500023946,323.67819150025025,None,None,39.0,3.0,,,,95,003,2024-09-18_16h45.08.013,Waermeplatte_v76,2024.1.5,60,2024-09-18 16h45.28.550248 +0200,
92,0,92,0,2024-09-18_16:50:52.217256,,,,323.7421412002295,325.6774965999648,None,None,39.2,4.0,,,,95,003,2024-09-18_16h45.08.013,Waermeplatte_v76,2024.1.5,60,2024-09-18 16h45.28.550248 +0200,
93,0,93,0,2024-09-18_16:50:54.219844,,,,325.7402173001319,327.6774312001653,None,None,39.400000000000006,4.0,,,,95,003,2024-09-18_16h45.08.013,Waermeplatte_v76,2024.1.5,60,2024-09-18 16h45.28.550248 +0200,
94,0,94,0,2024-09-18_16:50:56.220445,,,,327.74238590011373,329.6773688001558,None,None,39.6,6.0,,,,95,003,2024-09-18_16h45.08.013,Waermeplatte_v76,2024.1.5,60,2024-09-18 16h45.28.550248 +0200,
95,0,95,0,2024-09-18_16:50:58.216287,,,,329.7408922999166,331.67867790022865,None,None,39.7,6.0,,,,95,003,2024-09-18_16h45.08.013,Waermeplatte_v76,2024.1.5,60,2024-09-18 16h45.28.550248 +0200,
96,0,96,0,2024-09-18_16:51:00.217406,,,,331.7420843001455,333.6780111999251,None,None,39.900000000000006,6.0,,,,95,003,2024-09-18_16h45.08.013,Waermeplatte_v76,2024.1.5,60,2024-09-18 16h45.28.550248 +0200,
97,0,97,0,2024-09-18_16:51:02.224038,,,,333.7424989999272,335.6766964001581,None,None,40.1,7.0,,,,95,003,2024-09-18_16h45.08.013,Waermeplatte_v76,2024.1.5,60,2024-09-18 16h45.28.550248 +0200,
98,0,98,0,2024-09-18_16:51:04.214429,,,,335.7398132001981,337.6782964002341,None,None,40.300000000000004,6.0,,,,95,003,2024-09-18_16h45.08.013,Waermeplatte_v76,2024.1.5,60,2024-09-18 16h45.28.550248 +0200,
99,0,99,0,2024-09-18_16:51:06.221138,,,,337.7435985999182,339.6763881999068,None,None,40.5,6.0,,,,95,003,2024-09-18_16h45.08.013,Waermeplatte_v76,2024.1.5,60,2024-09-18 16h45.28.550248 +0200,
100,0,100,0,2024-09-18_16:51:08.217252,,,,339.7387908999808,341.67646340001374,None,None,40.7,6.0,,,,95,003,2024-09-18_16h45.08.013,Waermeplatte_v76,2024.1.5,60,2024-09-18 16h45.28.550248 +0200,
101,0,101,0,2024-09-18_16:51:10.215141,,,,341.7395711001009,343.6780216000043,None,None,40.800000000000004,6.0,,,,95,003,2024-09-18_16h45.08.013,Waermeplatte_v76,2024.1.5,60,2024-09-18 16h45.28.550248 +0200,
102,0,102,0,2024-09-18_16:51:12.215282,,,,343.7418459998444,345.67645200015977,None,None,41.0,7.0,,,,95,003,2024-09-18_16h45.08.013,Waermeplatte_v76,2024.1.5,60,2024-09-18 16h45.28.550248 +0200,
103,0,103,0,2024-09-18_16:51:14.207115,,,,345.73796619987115,347.6779704000801,None,None,41.1,7.0,,,,95,003,2024-09-18_16h45.08.013,Waermeplatte_v76,2024.1.5,60,2024-09-18 16h45.28.550248 +0200,
104,0,104,0,2024-09-18_16:51:16.211829,,,,347.7410414000042,349.6771733001806,None,None,41.300000000000004,5.0,,,,95,003,2024-09-18_16h45.08.013,Waermeplatte_v76,2024.1.5,60,2024-09-18 16h45.28.550248 +0200,
105,0,105,0,2024-09-18_16:51:18.217574,,,,349.7406839001924,351.6773453000933,None,None,41.400000000000006,6.0,,,,95,003,2024-09-18_16h45.08.013,Waermeplatte_v76,2024.1.5,60,2024-09-18 16h45.28.550248 +0200,
106,0,106,0,2024-09-18_16:51:20.217662,,,,351.74090069998056,353.6762613002211,None,None,41.6,6.0,,,,95,003,2024-09-18_16h45.08.013,Waermeplatte_v76,2024.1.5,60,2024-09-18 16h45.28.550248 +0200,
107,0,107,0,2024-09-18_16:51:22.218181,,,,353.73936220025644,355.67619280004874,None,None,41.800000000000004,6.0,,,,95,003,2024-09-18_16h45.08.013,Waermeplatte_v76,2024.1.5,60,2024-09-18 16h45.28.550248 +0200,
108,0,108,0,2024-09-18_16:51:24.216873,,,,355.7394619002007,357.6770856999792,None,None,41.900000000000006,6.0,,,,95,003,2024-09-18_16h45.08.013,Waermeplatte_v76,2024.1.5,60,2024-09-18 16h45.28.550248 +0200,
109,0,109,0,2024-09-18_16:51:26.215038,,,,357.7398816002533,359.6767523000017,None,None,42.1,6.0,,,,95,003,2024-09-18_16h45.08.013,Waermeplatte_v76,2024.1.5,60,2024-09-18 16h45.28.550248 +0200,
110,0,110,0,2024-09-18_16:51:28.218818,,,,359.7417166000232,361.6762395002879,None,None,42.2,6.0,,,,95,003,2024-09-18_16h45.08.013,Waermeplatte_v76,2024.1.5,60,2024-09-18 16h45.28.550248 +0200,
111,0,111,0,2024-09-18_16:51:30.215691,,,,361.7417596001178,363.67741629993543,None,None,42.400000000000006,7.0,,,,95,003,2024-09-18_16h45.08.013,Waermeplatte_v76,2024.1.5,60,2024-09-18 16h45.28.550248 +0200,
112,0,112,0,2024-09-18_16:51:32.217661,,,,363.74168389989063,365.6754641002044,None,None,42.6,7.0,,,,95,003,2024-09-18_16h45.08.013,Waermeplatte_v76,2024.1.5,60,2024-09-18 16h45.28.550248 +0200,
113,0,113,0,2024-09-18_16:51:34.218724,,,,365.73900640010834,367.67723509995267,None,None,42.7,7.0,,,,95,003,2024-09-18_16h45.08.013,Waermeplatte_v76,2024.1.5,60,2024-09-18 16h45.28.550248 +0200,
114,0,114,0,2024-09-18_16:51:36.212192,,,,367.7412213999778,369.6763480002992,None,None,42.900000000000006,14.0,,,,95,003,2024-09-18_16h45.08.013,Waermeplatte_v76,2024.1.5,60,2024-09-18 16h45.28.550248 +0200,
115,0,115,0,2024-09-18_16:51:38.216550,,,,369.74037369992584,371.6758884000592,None,None,43.1,18.0,,,,95,003,2024-09-18_16h45.08.013,Waermeplatte_v76,2024.1.5,60,2024-09-18 16h45.28.550248 +0200,
116,0,116,0,2024-09-18_16:51:40.213147,,,,371.73988040024415,373.6754013998434,None,None,43.2,21.0,,,,95,003,2024-09-18_16h45.08.013,Waermeplatte_v76,2024.1.5,60,2024-09-18 16h45.28.550248 +0200,
117,0,117,0,2024-09-18_16:51:42.213763,,,,373.7396223000251,375.6767971999943,None,None,43.400000000000006,22.0,,,,95,003,2024-09-18_16h45.08.013,Waermeplatte_v76,2024.1.5,60,2024-09-18 16h45.28.550248 +0200,
118,0,118,0,2024-09-18_16:51:44.213827,,,,375.7396801998839,377.6762361000292,None,None,43.5,25.0,,,,95,003,2024-09-18_16h45.08.013,Waermeplatte_v76,2024.1.5,60,2024-09-18 16h45.28.550248 +0200,
119,0,119,0,2024-09-18_16:51:46.214206,,,,377.7408002000302,379.674696800299,None,None,43.7,28.0,,,,95,003,2024-09-18_16h45.08.013,Waermeplatte_v76,2024.1.5,60,2024-09-18 16h45.28.550248 +0200,
120,0,120,0,2024-09-18_16:51:48.214862,,,,379.73836580011994,381.6746419002302,None,None,43.800000000000004,30.0,,,,95,003,2024-09-18_16h45.08.013,Waermeplatte_v76,2024.1.5,60,2024-09-18 16h45.28.550248 +0200,
121,0,121,0,2024-09-18_16:51:50.216590,,,,381.7383595001884,383.6747427000664,None,None,44.0,36.0,,,,95,003,2024-09-18_16h45.08.013,Waermeplatte_v76,2024.1.5,60,2024-09-18 16h45.28.550248 +0200,
122,0,122,0,2024-09-18_16:51:52.217582,,,,383.7395784002729,385.67485520010814,None,None,44.2,41.0,,,,95,003,2024-09-18_16h45.08.013,Waermeplatte_v76,2024.1.5,60,2024-09-18 16h45.28.550248 +0200,
123,0,123,0,2024-09-18_16:51:54.215856,,,,385.73961509997025,387.6747888000682,None,None,44.300000000000004,45.0,,,,95,003,2024-09-18_16h45.08.013,Waermeplatte_v76,2024.1.5,60,2024-09-18 16h45.28.550248 +0200,
124,0,124,0,2024-09-18_16:51:56.215966,,,,387.73881280003116,389.6736638001166,None,None,44.5,49.0,,,,95,003,2024-09-18_16h45.08.013,Waermeplatte_v76,2024.1.5,60,2024-09-18 16h45.28.550248 +0200,
125,0,125,0,2024-09-18_16:51:58.212991,,,,389.7374986000359,391.67469369992614,None,None,44.7,52.0,,,,95,003,2024-09-18_16h45.08.013,Waermeplatte_v76,2024.1.5,60,2024-09-18 16h45.28.550248 +0200,
126,0,126,0,2024-09-18_16:52:00.215997,,,,391.7390637998469,393.6745381001383,None,None,44.800000000000004,55.0,,,,95,003,2024-09-18_16h45.08.013,Waermeplatte_v76,2024.1.5,60,2024-09-18 16h45.28.550248 +0200,
127,0,127,0,2024-09-18_16:52:02.217794,,,,393.7390024000779,395.673851700034,None,None,45.0,57.0,,,,95,003,2024-09-18_16h45.08.013,Waermeplatte_v76,2024.1.5,60,2024-09-18 16h45.28.550248 +0200,
128,0,128,0,2024-09-18_16:52:04.212178,,,,395.7369834999554,397.676089100074,None,None,45.1,61.0,,,,95,003,2024-09-18_16h45.08.013,Waermeplatte_v76,2024.1.5,60,2024-09-18 16h45.28.550248 +0200,
129,0,129,0,2024-09-18_16:52:06.215484,,,,397.7385188001208,399.6742711002007,None,None,45.300000000000004,63.0,,,,95,003,2024-09-18_16h45.08.013,Waermeplatte_v76,2024.1.5,60,2024-09-18 16h45.28.550248 +0200,
130,0,130,0,2024-09-18_16:52:08.214321,,,,399.7380842999555,401.6754955002107,None,None,45.400000000000006,64.0,,,,95,003,2024-09-18_16h45.08.013,Waermeplatte_v76,2024.1.5,60,2024-09-18 16h45.28.550248 +0200,
131,0,131,0,2024-09-18_16:52:10.214471,,,,401.73933180002496,403.6744746998884,None,None,45.6,66.0,,,,95,003,2024-09-18_16h45.08.013,Waermeplatte_v76,2024.1.5,60,2024-09-18 16h45.28.550248 +0200,
132,0,132,0,2024-09-18_16:52:12.213146,,,,403.7377475001849,405.67455270001665,None,None,45.7,68.0,,,,95,003,2024-09-18_16h45.08.013,Waermeplatte_v76,2024.1.5,60,2024-09-18 16h45.28.550248 +0200,
133,0,133,0,2024-09-18_16:52:14.214391,,,,405.73721340019256,407.6738805002533,None,None,45.900000000000006,72.0,,,,95,003,2024-09-18_16h45.08.013,Waermeplatte_v76,2024.1.5,60,2024-09-18 16h45.28.550248 +0200,
134,0,134,0,2024-09-18_16:52:16.210787,,,,407.73726390022784,409.6742225000635,None,None,46.1,74.0,,,,95,003,2024-09-18_16h45.08.013,Waermeplatte_v76,2024.1.5,60,2024-09-18 16h45.28.550248 +0200,
135,0,135,0,2024-09-18_16:52:18.218595,,,,409.73972380021587,411.673591400031,None,None,46.2,76.0,,,,95,003,2024-09-18_16h45.08.013,Waermeplatte_v76,2024.1.5,60,2024-09-18 16h45.28.550248 +0200,
136,0,136,0,2024-09-18_16:52:20.212326,,,,411.73724569985643,413.6731576002203,None,None,46.400000000000006,78.0,,,,95,003,2024-09-18_16h45.08.013,Waermeplatte_v76,2024.1.5,60,2024-09-18 16h45.28.550248 +0200,
137,0,137,0,2024-09-18_16:52:22.215046,,,,413.73718689987436,415.6743423999287,None,None,46.5,80.0,,,,95,003,2024-09-18_16h45.08.013,Waermeplatte_v76,2024.1.5,60,2024-09-18 16h45.28.550248 +0200,
138,0,138,0,2024-09-18_16:52:24.213966,,,,415.73837070027366,417.6745599000715,81.0,None,46.7,81.0,,,,95,003,2024-09-18_16h45.08.013,Waermeplatte_v76,2024.1.5,60,2024-09-18 16h45.28.550248 +0200,
139,0,139,0,2024-09-18_16:52:26.215373,,,,417.73874679999426,419.67642839998007,None,None,46.900000000000006,None,,,,95,003,2024-09-18_16h45.08.013,Waermeplatte_v76,2024.1.5,60,2024-09-18 16h45.28.550248 +0200,
140,0,140,0,2024-09-18_16:52:28.214244,,,,419.7410975000821,421.6781756998971,None,None,47.1,None,,,,95,003,2024-09-18_16h45.08.013,Waermeplatte_v76,2024.1.5,60,2024-09-18 16h45.28.550248 +0200,
141,0,141,0,2024-09-18_16:52:30.219709,,,,421.74274600017816,423.67558920010924,None,None,47.2,None,,,,95,003,2024-09-18_16h45.08.013,Waermeplatte_v76,2024.1.5,60,2024-09-18 16h45.28.550248 +0200,
142,0,142,0,2024-09-18_16:52:32.208022,,,,423.738504299894,425.67749699996784,None,None,47.400000000000006,None,,,,95,003,2024-09-18_16h45.08.013,Waermeplatte_v76,2024.1.5,60,2024-09-18 16h45.28.550248 +0200,
143,0,143,0,2024-09-18_16:52:34.212081,,,,425.74171270010993,427.6772698001005,None,None,47.5,None,,,,95,003,2024-09-18_16h45.08.013,Waermeplatte_v76,2024.1.5,60,2024-09-18 16h45.28.550248 +0200,
144,0,144,0,2024-09-18_16:52:36.212095,,,,427.74238059995696,429.6783404001035,None,None,47.7,None,,,,95,003,2024-09-18_16h45.08.013,Waermeplatte_v76,2024.1.5,60,2024-09-18 16h45.28.550248 +0200,
145,0,145,0,2024-09-18_16:52:38.215418,,,,429.7425269000232,431.67597840027884,None,None,47.900000000000006,None,,,,95,003,2024-09-18_16h45.08.013,Waermeplatte_v76,2024.1.5,60,2024-09-18 16h45.28.550248 +0200,
146,0,146,0,2024-09-18_16:52:40.215837,,,,431.74025580007583,433.6773165999912,None,None,48.0,None,,,,95,003,2024-09-18_16h45.08.013,Waermeplatte_v76,2024.1.5,60,2024-09-18 16h45.28.550248 +0200,
147,0,147,0,2024-09-18_16:52:42.211208,,,,433.74095020024106,435.675963900052,None,None,48.1,None,,,,95,003,2024-09-18_16h45.08.013,Waermeplatte_v76,2024.1.5,60,2024-09-18 16h45.28.550248 +0200,
148,0,148,0,2024-09-18_16:52:44.211859,,,,435.7399446000345,437.67457289993763,None,None,48.2,None,,,,95,003,2024-09-18_16h45.08.013,Waermeplatte_v76,2024.1.5,60,2024-09-18 16h45.28.550248 +0200,
149,0,149,0,2024-09-18_16:52:46.211962,,,,437.7396702999249,439.6762035000138,None,None,48.300000000000004,None,,,,95,003,2024-09-18_16h45.08.013,Waermeplatte_v76,2024.1.5,60,2024-09-18 16h45.28.550248 +0200,
,,,,,,,,,,,,,,439.7394285001792,439.74630140000954,449.6847105999477,95,003,2024-09-18_16h45.08.013,Waermeplatte_v76,2024.1.5,60,2024-09-18 16h45.28.550248 +0200,
