rating_loop.thisRepN,rating_loop.thisTrialN,rating_loop.thisN,rating_loop.thisIndex,thisRow.t,notes,WelcomeScreen.started,WelcomeScreen.stopped,trial.started,trial.stopped,sliderRating.response,slider_stop.response,temperature_PT,sliderRating.markerPos,GoodbyScreen.started,text.started,GoodbyScreen.stopped,participant,session,date,expName,psychopyVersion,frameRate,expStart,
,,,,,,0.11933209979906678,2.4124869001097977,,,,,,,,,,97,003,2024-09-18_16h55.12.462,Waermeplatte_v76,2024.1.5,60,2024-09-18 16h56.08.135435 +0200,
,,,,,,,,,,,,,,,,,97,003,2024-09-18_16h55.12.462,Waermeplatte_v76,2024.1.5,60,2024-09-18 16h56.08.135435 +0200,
0,0,0,0,2024-09-18_16:56:10.969220,,,,2.929359400179237,4.933121399953961,None,None,35.800000000000004,None,,,,97,003,2024-09-18_16h55.12.462,Waermeplatte_v76,2024.1.5,60,2024-09-18 16h56.08.135435 +0200,
1,0,1,0,2024-09-18_16:56:13.039169,,,,4.997103900182992,6.934388400055468,None,None,35.6,None,,,,97,003,2024-09-18_16h55.12.462,Waermeplatte_v76,2024.1.5,60,2024-09-18 16h56.08.135435 +0200,
2,0,2,0,2024-09-18_16:56:15.035419,,,,6.998013999778777,8.93240759987384,None,None,35.5,7.0,,,,97,003,2024-09-18_16h55.12.462,Waermeplatte_v76,2024.1.5,60,2024-09-18 16h56.08.135435 +0200,
3,0,3,0,2024-09-18_16:56:17.035270,,,,8.994870800059289,10.93082039989531,None,None,35.4,4.0,,,,97,003,2024-09-18_16h55.12.462,Waermeplatte_v76,2024.1.5,60,2024-09-18 16h56.08.135435 +0200,
4,0,4,0,2024-09-18_16:56:19.036633,,,,10.994846299756318,12.931250399909914,None,None,35.300000000000004,4.0,,,,97,003,2024-09-18_16h55.12.462,Waermeplatte_v76,2024.1.5,60,2024-09-18 16h56.08.135435 +0200,
5,0,5,0,2024-09-18_16:56:21.037281,,,,12.995974899735302,14.930360400117934,None,None,35.2,69.0,,,,97,003,2024-09-18_16h55.12.462,Waermeplatte_v76,2024.1.5,60,2024-09-18 16h56.08.135435 +0200,
6,0,6,0,2024-09-18_16:56:23.035646,,,,14.994959599804133,16.92974440008402,None,None,35.1,1.0,,,,97,003,2024-09-18_16h55.12.462,Waermeplatte_v76,2024.1.5,60,2024-09-18 16h56.08.135435 +0200,
7,0,7,0,2024-09-18_16:56:25.033742,,,,16.993226499762386,18.93049310008064,None,None,35.1,1.0,,,,97,003,2024-09-18_16h55.12.462,Waermeplatte_v76,2024.1.5,60,2024-09-18 16h56.08.135435 +0200,
8,0,8,0,2024-09-18_16:56:27.036634,,,,18.994636999908835,20.931432699784636,None,None,35.1,15.0,,,,97,003,2024-09-18_16h55.12.462,Waermeplatte_v76,2024.1.5,60,2024-09-18 16h56.08.135435 +0200,
9,0,9,0,2024-09-18_16:56:29.034296,,,,20.994344300124794,22.930162199772894,None,None,35.1,65.0,,,,97,003,2024-09-18_16h55.12.462,Waermeplatte_v76,2024.1.5,60,2024-09-18 16h56.08.135435 +0200,
10,0,10,0,2024-09-18_16:56:31.036744,,,,22.993662000168115,24.930822799913585,None,None,35.0,48.0,,,,97,003,2024-09-18_16h55.12.462,Waermeplatte_v76,2024.1.5,60,2024-09-18 16h56.08.135435 +0200,
11,0,11,0,2024-09-18_16:56:33.035467,,,,24.99348759977147,26.92946540005505,None,None,35.0,1.0,,,,97,003,2024-09-18_16h55.12.462,Waermeplatte_v76,2024.1.5,60,2024-09-18 16h56.08.135435 +0200,
12,0,12,0,2024-09-18_16:56:35.032470,,,,26.99300709972158,28.930593899916857,None,None,35.0,19.0,,,,97,003,2024-09-18_16h55.12.462,Waermeplatte_v76,2024.1.5,60,2024-09-18 16h56.08.135435 +0200,
13,0,13,0,2024-09-18_16:56:37.038435,,,,28.993811400141567,30.93082130001858,None,None,35.0,71.0,,,,97,003,2024-09-18_16h55.12.462,Waermeplatte_v76,2024.1.5,60,2024-09-18 16h56.08.135435 +0200,
14,0,14,0,2024-09-18_16:56:39.036297,,,,30.99503119988367,32.93129550013691,None,None,34.9,12.0,,,,97,003,2024-09-18_16h55.12.462,Waermeplatte_v76,2024.1.5,60,2024-09-18 16h56.08.135435 +0200,
15,0,15,0,2024-09-18_16:56:41.036491,,,,32.99474669992924,34.930149800144136,None,None,34.9,0.0,,,,97,003,2024-09-18_16h55.12.462,Waermeplatte_v76,2024.1.5,60,2024-09-18 16h56.08.135435 +0200,
16,0,16,0,2024-09-18_16:56:43.037837,,,,34.99422910017893,36.931399799883366,None,None,34.9,0,,,,97,003,2024-09-18_16h55.12.462,Waermeplatte_v76,2024.1.5,60,2024-09-18 16h56.08.135435 +0200,
17,0,17,0,2024-09-18_16:56:45.038623,,,,36.99531409982592,38.929804699961096,None,None,34.800000000000004,0,,,,97,003,2024-09-18_16h55.12.462,Waermeplatte_v76,2024.1.5,60,2024-09-18 16h56.08.135435 +0200,
18,0,18,0,2024-09-18_16:56:47.037678,,,,38.994144099764526,40.928975500166416,None,None,34.800000000000004,0,,,,97,003,2024-09-18_16h55.12.462,Waermeplatte_v76,2024.1.5,60,2024-09-18 16h56.08.135435 +0200,
19,0,19,0,2024-09-18_16:56:49.039218,,,,40.99274230003357,42.93060929980129,None,None,34.7,0.0,,,,97,003,2024-09-18_16h55.12.462,Waermeplatte_v76,2024.1.5,60,2024-09-18 16h56.08.135435 +0200,
20,0,20,0,2024-09-18_16:56:51.031228,,,,42.99410999985412,44.92951399972662,None,None,34.6,0.0,,,,97,003,2024-09-18_16h55.12.462,Waermeplatte_v76,2024.1.5,60,2024-09-18 16h56.08.135435 +0200,
21,0,21,0,2024-09-18_16:56:53.036403,,,,44.99411589978263,46.92867359984666,None,None,34.6,0.0,,,,97,003,2024-09-18_16h55.12.462,Waermeplatte_v76,2024.1.5,60,2024-09-18 16h56.08.135435 +0200,
22,0,22,0,2024-09-18_16:56:55.034741,,,,46.99222050001845,48.92966050002724,None,None,34.6,0.0,,,,97,003,2024-09-18_16h55.12.462,Waermeplatte_v76,2024.1.5,60,2024-09-18 16h56.08.135435 +0200,
23,0,23,0,2024-09-18_16:56:57.034656,,,,48.9940158999525,50.929955299943686,None,None,34.5,0.0,,,,97,003,2024-09-18_16h55.12.462,Waermeplatte_v76,2024.1.5,60,2024-09-18 16h56.08.135435 +0200,
24,0,24,0,2024-09-18_16:56:59.034387,,,,50.99377809977159,52.93036179989576,None,None,34.5,0.0,,,,97,003,2024-09-18_16h55.12.462,Waermeplatte_v76,2024.1.5,60,2024-09-18 16h56.08.135435 +0200,
25,0,25,0,2024-09-18_16:57:01.035653,,,,52.994262400083244,54.93098849989474,0.0,None,34.5,0.0,,,,97,003,2024-09-18_16h55.12.462,Waermeplatte_v76,2024.1.5,60,2024-09-18 16h56.08.135435 +0200,
26,0,26,0,2024-09-18_16:57:03.025808,,,,54.99317539995536,56.93307999987155,None,None,34.5,None,,,,97,003,2024-09-18_16h55.12.462,Waermeplatte_v76,2024.1.5,60,2024-09-18 16h56.08.135435 +0200,
27,0,27,0,2024-09-18_16:57:05.033931,,,,56.99732369976118,58.93337470013648,None,None,34.4,None,,,,97,003,2024-09-18_16h55.12.462,Waermeplatte_v76,2024.1.5,60,2024-09-18 16h56.08.135435 +0200,
28,0,28,0,2024-09-18_16:57:07.037501,,,,58.99890419980511,60.93364699976519,None,None,34.4,None,,,,97,003,2024-09-18_16h55.12.462,Waermeplatte_v76,2024.1.5,60,2024-09-18 16h56.08.135435 +0200,
29,0,29,0,2024-09-18_16:57:09.039551,,,,60.99841050012037,62.93195329979062,None,None,34.300000000000004,None,,,,97,003,2024-09-18_16h55.12.462,Waermeplatte_v76,2024.1.5,60,2024-09-18 16h56.08.135435 +0200,
30,0,30,0,2024-09-18_16:57:11.033019,,,,62.99680049996823,64.92952180001885,24.0,None,34.300000000000004,24.0,,,,97,003,2024-09-18_16h55.12.462,Waermeplatte_v76,2024.1.5,60,2024-09-18 16h56.08.135435 +0200,
31,0,31,0,2024-09-18_16:57:13.031701,,,,64.99306959984824,66.93080249987543,13.0,None,34.300000000000004,13.0,,,,97,003,2024-09-18_16h55.12.462,Waermeplatte_v76,2024.1.5,60,2024-09-18 16h56.08.135435 +0200,
32,0,32,0,2024-09-18_16:57:15.030381,,,,66.99501849990338,68.9319184999913,None,None,34.300000000000004,None,,,,97,003,2024-09-18_16h55.12.462,Waermeplatte_v76,2024.1.5,60,2024-09-18 16h56.08.135435 +0200,
33,0,33,0,2024-09-18_16:57:17.030176,,,,68.99512560013682,70.92811609990895,None,None,34.300000000000004,79.0,,,,97,003,2024-09-18_16h55.12.462,Waermeplatte_v76,2024.1.5,60,2024-09-18 16h56.08.135435 +0200,
34,0,34,0,2024-09-18_16:57:19.030248,,,,70.99193490017205,72.9271947001107,None,None,34.300000000000004,34.0,,,,97,003,2024-09-18_16h55.12.462,Waermeplatte_v76,2024.1.5,60,2024-09-18 16h56.08.135435 +0200,
35,0,35,0,2024-09-18_16:57:21.035469,,,,72.99208769993857,74.92888299981132,0.0,None,34.2,0.0,,,,97,003,2024-09-18_16h55.12.462,Waermeplatte_v76,2024.1.5,60,2024-09-18 16h56.08.135435 +0200,
36,0,36,0,2024-09-18_16:57:23.026846,,,,74.99196740007028,76.93165310006589,None,None,34.2,None,,,,97,003,2024-09-18_16h55.12.462,Waermeplatte_v76,2024.1.5,60,2024-09-18 16h56.08.135435 +0200,
37,0,37,0,2024-09-18_16:57:25.026496,,,,76.99431520001963,78.93090619985014,None,None,34.2,None,,,,97,003,2024-09-18_16h55.12.462,Waermeplatte_v76,2024.1.5,60,2024-09-18 16h56.08.135435 +0200,
38,0,38,0,2024-09-18_16:57:27.035994,,,,78.99527239985764,80.93107379972935,None,None,34.2,None,,,,97,003,2024-09-18_16h55.12.462,Waermeplatte_v76,2024.1.5,60,2024-09-18 16h56.08.135435 +0200,
39,0,39,0,2024-09-18_16:57:29.029466,,,,80.99467709986493,82.9312467998825,None,None,34.2,None,,,,97,003,2024-09-18_16h55.12.462,Waermeplatte_v76,2024.1.5,60,2024-09-18 16h56.08.135435 +0200,
40,0,40,0,2024-09-18_16:57:31.029632,,,,82.99468969972804,84.92927519977093,None,None,34.2,None,,,,97,003,2024-09-18_16h55.12.462,Waermeplatte_v76,2024.1.5,60,2024-09-18 16h56.08.135435 +0200,
41,0,41,0,2024-09-18_16:57:33.034777,,,,84.99335879972205,86.93043950013816,None,None,34.2,None,,,,97,003,2024-09-18_16h55.12.462,Waermeplatte_v76,2024.1.5,60,2024-09-18 16h56.08.135435 +0200,
42,0,42,0,2024-09-18_16:57:35.036785,,,,86.99445059988648,88.93039589980617,None,None,34.2,None,,,,97,003,2024-09-18_16h55.12.462,Waermeplatte_v76,2024.1.5,60,2024-09-18 16h56.08.135435 +0200,
43,0,43,0,2024-09-18_16:57:37.038767,,,,88.9955573999323,90.92894939985126,None,None,34.2,None,,,,97,003,2024-09-18_16h55.12.462,Waermeplatte_v76,2024.1.5,60,2024-09-18 16h56.08.135435 +0200,
44,0,44,0,2024-09-18_16:57:39.026920,,,,90.99199659982696,92.92934820009395,None,None,34.300000000000004,None,,,,97,003,2024-09-18_16h55.12.462,Waermeplatte_v76,2024.1.5,60,2024-09-18 16h56.08.135435 +0200,
45,0,45,0,2024-09-18_16:57:41.035082,,,,92.99374629976228,94.93015500018373,None,None,34.300000000000004,None,,,,97,003,2024-09-18_16h55.12.462,Waermeplatte_v76,2024.1.5,60,2024-09-18 16h56.08.135435 +0200,
46,0,46,0,2024-09-18_16:57:43.032589,,,,94.99420339986682,96.93031219998375,None,None,34.300000000000004,None,,,,97,003,2024-09-18_16h55.12.462,Waermeplatte_v76,2024.1.5,60,2024-09-18 16h56.08.135435 +0200,
47,0,47,0,2024-09-18_16:57:45.029487,,,,96.99435340007767,98.92832570010796,None,None,34.300000000000004,None,,,,97,003,2024-09-18_16h55.12.462,Waermeplatte_v76,2024.1.5,60,2024-09-18 16h56.08.135435 +0200,
48,0,48,0,2024-09-18_16:57:47.026631,,,,98.99189780000597,100.93055750010535,None,None,34.300000000000004,None,,,,97,003,2024-09-18_16h55.12.462,Waermeplatte_v76,2024.1.5,60,2024-09-18 16h56.08.135435 +0200,
49,0,49,0,2024-09-18_16:57:49.029223,,,,100.99429729999974,102.92817820003256,None,None,34.4,None,,,,97,003,2024-09-18_16h55.12.462,Waermeplatte_v76,2024.1.5,60,2024-09-18 16h56.08.135435 +0200,
50,0,50,0,2024-09-18_16:57:51.027332,,,,102.99115839973092,104.92932369979098,None,None,34.4,None,,,,97,003,2024-09-18_16h55.12.462,Waermeplatte_v76,2024.1.5,60,2024-09-18 16h56.08.135435 +0200,
51,0,51,0,2024-09-18_16:57:53.027470,,,,104.99306390015408,106.92763789976016,None,None,34.5,None,,,,97,003,2024-09-18_16h55.12.462,Waermeplatte_v76,2024.1.5,60,2024-09-18 16h56.08.135435 +0200,
52,0,52,0,2024-09-18_16:57:55.029543,,,,106.99117279984057,108.93078120006248,None,None,34.5,None,,,,97,003,2024-09-18_16h55.12.462,Waermeplatte_v76,2024.1.5,60,2024-09-18 16h56.08.135435 +0200,
53,0,53,0,2024-09-18_16:57:57.038785,,,,108.99494760017842,110.92861249996349,None,None,34.5,None,,,,97,003,2024-09-18_16h55.12.462,Waermeplatte_v76,2024.1.5,60,2024-09-18 16h56.08.135435 +0200,
54,0,54,0,2024-09-18_16:57:59.030021,,,,110.9915676000528,112.92780849989504,None,None,34.5,None,,,,97,003,2024-09-18_16h55.12.462,Waermeplatte_v76,2024.1.5,60,2024-09-18 16h56.08.135435 +0200,
55,0,55,0,2024-09-18_16:58:01.029737,,,,112.9913829001598,114.92624709988013,None,None,34.6,None,,,,97,003,2024-09-18_16h55.12.462,Waermeplatte_v76,2024.1.5,60,2024-09-18 16h56.08.135435 +0200,
56,0,56,0,2024-09-18_16:58:03.027831,,,,114.98929800000042,116.92751789977774,None,None,34.6,None,,,,97,003,2024-09-18_16h55.12.462,Waermeplatte_v76,2024.1.5,60,2024-09-18 16h56.08.135435 +0200,
57,0,57,0,2024-09-18_16:58:05.027666,,,,116.99173180013895,118.92813079990447,None,None,34.6,None,,,,97,003,2024-09-18_16h55.12.462,Waermeplatte_v76,2024.1.5,60,2024-09-18 16h56.08.135435 +0200,
58,0,58,0,2024-09-18_16:58:07.034355,,,,118.9921059999615,120.92821339983493,None,None,34.6,None,,,,97,003,2024-09-18_16h55.12.462,Waermeplatte_v76,2024.1.5,60,2024-09-18 16h56.08.135435 +0200,
59,0,59,0,2024-09-18_16:58:09.026021,,,,120.99175040004775,122.92662509996444,None,None,34.7,57.0,,,,97,003,2024-09-18_16h55.12.462,Waermeplatte_v76,2024.1.5,60,2024-09-18 16h56.08.135435 +0200,
60,0,60,0,2024-09-18_16:58:11.031936,,,,122.98995850002393,124.92424760013819,2.0,None,34.7,2.0,,,,97,003,2024-09-18_16h55.12.462,Waermeplatte_v76,2024.1.5,60,2024-09-18 16h56.08.135435 +0200,
61,0,61,0,2024-09-18_16:58:13.029917,,,,124.98851680010557,126.92619330016896,8.0,None,34.7,8.0,,,,97,003,2024-09-18_16h55.12.462,Waermeplatte_v76,2024.1.5,60,2024-09-18 16h56.08.135435 +0200,
62,0,62,0,2024-09-18_16:58:15.025275,,,,126.98998569976538,128.92754440009594,None,None,34.7,None,,,,97,003,2024-09-18_16h55.12.462,Waermeplatte_v76,2024.1.5,60,2024-09-18 16h56.08.135435 +0200,
63,0,63,0,2024-09-18_16:58:17.026126,,,,128.99144189991057,130.9270103997551,None,None,34.7,None,,,,97,003,2024-09-18_16h55.12.462,Waermeplatte_v76,2024.1.5,60,2024-09-18 16h56.08.135435 +0200,
64,0,64,0,2024-09-18_16:58:19.031882,,,,130.99117809999734,132.92501140013337,None,None,34.800000000000004,1.0,,,,97,003,2024-09-18_16h55.12.462,Waermeplatte_v76,2024.1.5,60,2024-09-18 16h56.08.135435 +0200,
65,0,65,0,2024-09-18_16:58:21.030477,,,,132.98857549997047,134.92532189982012,None,None,34.800000000000004,1.0,,,,97,003,2024-09-18_16h55.12.462,Waermeplatte_v76,2024.1.5,60,2024-09-18 16h56.08.135435 +0200,
66,0,66,0,2024-09-18_16:58:23.029191,,,,134.98827259987593,136.92490690015256,None,None,34.9,1.0,,,,97,003,2024-09-18_16h55.12.462,Waermeplatte_v76,2024.1.5,60,2024-09-18 16h56.08.135435 +0200,
67,0,67,0,2024-09-18_16:58:25.034703,,,,136.9885470001027,138.92395870015025,None,None,34.9,1.0,,,,97,003,2024-09-18_16h55.12.462,Waermeplatte_v76,2024.1.5,60,2024-09-18 16h56.08.135435 +0200,
68,0,68,0,2024-09-18_16:58:27.031913,,,,138.98731380002573,140.924637099728,None,None,35.0,1.0,,,,97,003,2024-09-18_16h55.12.462,Waermeplatte_v76,2024.1.5,60,2024-09-18 16h56.08.135435 +0200,
69,0,69,0,2024-09-18_16:58:29.031079,,,,140.9893061001785,142.9243223001249,None,None,35.1,3.0,,,,97,003,2024-09-18_16h55.12.462,Waermeplatte_v76,2024.1.5,60,2024-09-18 16h56.08.135435 +0200,
70,0,70,0,2024-09-18_16:58:31.027905,,,,142.98796189995483,144.92422459973022,None,None,35.2,3.0,,,,97,003,2024-09-18_16h55.12.462,Waermeplatte_v76,2024.1.5,60,2024-09-18 16h56.08.135435 +0200,
71,0,71,0,2024-09-18_16:58:33.029829,,,,144.98651399975643,146.92343650013208,None,None,35.300000000000004,3.0,,,,97,003,2024-09-18_16h55.12.462,Waermeplatte_v76,2024.1.5,60,2024-09-18 16h56.08.135435 +0200,
72,0,72,0,2024-09-18_16:58:35.033037,,,,146.98766459990293,148.92281050002202,None,None,35.4,3.0,,,,97,003,2024-09-18_16h55.12.462,Waermeplatte_v76,2024.1.5,60,2024-09-18 16h56.08.135435 +0200,
73,0,73,0,2024-09-18_16:58:37.023355,,,,148.98564099986106,150.924269199837,None,None,35.5,3.0,,,,97,003,2024-09-18_16h55.12.462,Waermeplatte_v76,2024.1.5,60,2024-09-18 16h56.08.135435 +0200,
74,0,74,0,2024-09-18_16:58:39.031817,,,,150.9898794000037,152.92378149973229,None,None,35.7,3.0,,,,97,003,2024-09-18_16h55.12.462,Waermeplatte_v76,2024.1.5,60,2024-09-18 16h56.08.135435 +0200,
75,0,75,0,2024-09-18_16:58:41.029693,,,,152.9874660000205,154.9235935001634,None,None,35.9,3.0,,,,97,003,2024-09-18_16h55.12.462,Waermeplatte_v76,2024.1.5,60,2024-09-18 16h56.08.135435 +0200,
76,0,76,0,2024-09-18_16:58:43.033675,,,,154.98789629992098,156.922683800105,None,None,36.0,3.0,,,,97,003,2024-09-18_16h55.12.462,Waermeplatte_v76,2024.1.5,60,2024-09-18 16h56.08.135435 +0200,
77,0,77,0,2024-09-18_16:58:45.023985,,,,156.98518159985542,158.92513189977035,None,None,36.2,3.0,,,,97,003,2024-09-18_16h55.12.462,Waermeplatte_v76,2024.1.5,60,2024-09-18 16h56.08.135435 +0200,
78,0,78,0,2024-09-18_16:58:47.028802,,,,158.9892766997218,160.92350979987532,None,None,36.4,3.0,,,,97,003,2024-09-18_16h55.12.462,Waermeplatte_v76,2024.1.5,60,2024-09-18 16h56.08.135435 +0200,
79,0,79,0,2024-09-18_16:58:49.028432,,,,160.98715850012377,162.92322830017656,None,None,36.6,3.0,,,,97,003,2024-09-18_16h55.12.462,Waermeplatte_v76,2024.1.5,60,2024-09-18 16h56.08.135435 +0200,
80,0,80,0,2024-09-18_16:58:51.026381,,,,162.98675510007888,164.92441690014675,None,None,36.800000000000004,3.0,,,,97,003,2024-09-18_16h55.12.462,Waermeplatte_v76,2024.1.5,60,2024-09-18 16h56.08.135435 +0200,
81,0,81,0,2024-09-18_16:58:53.032200,,,,164.98961640009657,166.92417969973758,None,None,37.0,3.0,,,,97,003,2024-09-18_16h55.12.462,Waermeplatte_v76,2024.1.5,60,2024-09-18 16h56.08.135435 +0200,
82,0,82,0,2024-09-18_16:58:55.033713,,,,166.98811580007896,168.92250559991226,None,None,37.2,3.0,,,,97,003,2024-09-18_16h55.12.462,Waermeplatte_v76,2024.1.5,60,2024-09-18 16h56.08.135435 +0200,
83,0,83,0,2024-09-18_16:58:57.023641,,,,168.98576160008088,170.92248019995168,None,None,37.4,6.0,,,,97,003,2024-09-18_16h55.12.462,Waermeplatte_v76,2024.1.5,60,2024-09-18 16h56.08.135435 +0200,
84,0,84,0,2024-09-18_16:58:59.024935,,,,170.98751090001315,172.92289929976687,None,None,37.6,7.0,,,,97,003,2024-09-18_16h55.12.462,Waermeplatte_v76,2024.1.5,60,2024-09-18 16h56.08.135435 +0200,
85,0,85,0,2024-09-18_16:59:01.028949,,,,172.9880123999901,174.92124769976363,None,None,37.800000000000004,6.0,,,,97,003,2024-09-18_16h55.12.462,Waermeplatte_v76,2024.1.5,60,2024-09-18 16h56.08.135435 +0200,
86,0,86,0,2024-09-18_16:59:03.018477,,,,174.98279429972172,176.9220114997588,None,None,38.0,14.0,,,,97,003,2024-09-18_16h55.12.462,Waermeplatte_v76,2024.1.5,60,2024-09-18 16h56.08.135435 +0200,
87,0,87,0,2024-09-18_16:59:05.026459,,,,176.98502779984847,178.92240419983864,None,None,38.2,5.0,,,,97,003,2024-09-18_16h55.12.462,Waermeplatte_v76,2024.1.5,60,2024-09-18 16h56.08.135435 +0200,
88,0,88,0,2024-09-18_16:59:07.031292,,,,178.9860105998814,180.92338369973004,None,None,38.400000000000006,6.0,,,,97,003,2024-09-18_16h55.12.462,Waermeplatte_v76,2024.1.5,60,2024-09-18 16h56.08.135435 +0200,
89,0,89,0,2024-09-18_16:59:09.024807,,,,180.98516519973055,182.9228515997529,None,None,38.7,6.0,,,,97,003,2024-09-18_16h55.12.462,Waermeplatte_v76,2024.1.5,60,2024-09-18 16h56.08.135435 +0200,
90,0,90,0,2024-09-18_16:59:11.027292,,,,182.98609249992296,184.921781799756,None,None,38.800000000000004,6.0,,,,97,003,2024-09-18_16h55.12.462,Waermeplatte_v76,2024.1.5,60,2024-09-18 16h56.08.135435 +0200,
91,0,91,0,2024-09-18_16:59:13.025962,,,,184.98537380015478,186.92171979974955,None,None,39.1,6.0,,,,97,003,2024-09-18_16h55.12.462,Waermeplatte_v76,2024.1.5,60,2024-09-18 16h56.08.135435 +0200,
92,0,92,0,2024-09-18_16:59:15.026445,,,,186.98414650000632,188.9228595001623,None,None,39.2,6.0,,,,97,003,2024-09-18_16h55.12.462,Waermeplatte_v76,2024.1.5,60,2024-09-18 16h56.08.135435 +0200,
93,0,93,0,2024-09-18_16:59:17.027770,,,,188.98617269983515,190.92273679981008,None,None,39.400000000000006,6.0,,,,97,003,2024-09-18_16h55.12.462,Waermeplatte_v76,2024.1.5,60,2024-09-18 16h56.08.135435 +0200,
94,0,94,0,2024-09-18_16:59:19.027833,,,,190.98529460001737,192.92232580017298,None,None,39.6,6.0,,,,97,003,2024-09-18_16h55.12.462,Waermeplatte_v76,2024.1.5,60,2024-09-18 16h56.08.135435 +0200,
95,0,95,0,2024-09-18_16:59:21.024842,,,,192.98594109993428,194.92359420005232,None,None,39.7,5.0,,,,97,003,2024-09-18_16h55.12.462,Waermeplatte_v76,2024.1.5,60,2024-09-18 16h56.08.135435 +0200,
96,0,96,0,2024-09-18_16:59:23.026766,,,,194.98681019991636,196.92208229983225,None,None,39.900000000000006,5.0,,,,97,003,2024-09-18_16h55.12.462,Waermeplatte_v76,2024.1.5,60,2024-09-18 16h56.08.135435 +0200,
97,0,97,0,2024-09-18_16:59:25.026687,,,,196.98687379993498,198.92160539980978,None,None,40.1,5.0,,,,97,003,2024-09-18_16h55.12.462,Waermeplatte_v76,2024.1.5,60,2024-09-18 16h56.08.135435 +0200,
98,0,98,0,2024-09-18_16:59:27.023749,,,,198.98408679990098,200.9228256000206,None,None,40.300000000000004,6.0,,,,97,003,2024-09-18_16h55.12.462,Waermeplatte_v76,2024.1.5,60,2024-09-18 16h56.08.135435 +0200,
99,0,99,0,2024-09-18_16:59:29.028362,,,,200.98643250018358,202.9222673997283,None,None,40.400000000000006,6.0,,,,97,003,2024-09-18_16h55.12.462,Waermeplatte_v76,2024.1.5,60,2024-09-18 16h56.08.135435 +0200,
100,0,100,0,2024-09-18_16:59:31.025778,,,,202.98604700015858,204.92236649990082,None,None,40.6,6.0,,,,97,003,2024-09-18_16h55.12.462,Waermeplatte_v76,2024.1.5,60,2024-09-18 16h56.08.135435 +0200,
101,0,101,0,2024-09-18_16:59:33.026392,,,,204.9853485999629,206.9212944000028,None,None,40.800000000000004,6.0,,,,97,003,2024-09-18_16h55.12.462,Waermeplatte_v76,2024.1.5,60,2024-09-18 16h56.08.135435 +0200,
102,0,102,0,2024-09-18_16:59:35.027891,,,,206.98650230001658,208.92213189974427,None,None,41.0,6.0,,,,97,003,2024-09-18_16h55.12.462,Waermeplatte_v76,2024.1.5,60,2024-09-18 16h56.08.135435 +0200,
103,0,103,0,2024-09-18_16:59:37.028538,,,,208.98642259975895,210.92014790000394,None,None,41.1,6.0,,,,97,003,2024-09-18_16h55.12.462,Waermeplatte_v76,2024.1.5,60,2024-09-18 16h56.08.135435 +0200,
104,0,104,0,2024-09-18_16:59:39.022728,,,,210.9837136999704,212.92185019981116,None,None,41.300000000000004,6.0,,,,97,003,2024-09-18_16h55.12.462,Waermeplatte_v76,2024.1.5,60,2024-09-18 16h56.08.135435 +0200,
105,0,105,0,2024-09-18_16:59:41.024539,,,,212.9855257999152,214.91964850015938,None,None,41.400000000000006,6.0,,,,97,003,2024-09-18_16h55.12.462,Waermeplatte_v76,2024.1.5,60,2024-09-18 16h56.08.135435 +0200,
106,0,106,0,2024-09-18_16:59:43.026622,,,,214.9847487998195,216.92157500004396,None,None,41.6,6.0,,,,97,003,2024-09-18_16h55.12.462,Waermeplatte_v76,2024.1.5,60,2024-09-18 16h56.08.135435 +0200,
107,0,107,0,2024-09-18_16:59:45.024991,,,,216.98566679982468,218.92034609988332,None,None,41.800000000000004,6.0,,,,97,003,2024-09-18_16h55.12.462,Waermeplatte_v76,2024.1.5,60,2024-09-18 16h56.08.135435 +0200,
108,0,108,0,2024-09-18_16:59:47.025424,,,,218.98467160016298,220.920232700184,None,None,41.900000000000006,9.0,,,,97,003,2024-09-18_16h55.12.462,Waermeplatte_v76,2024.1.5,60,2024-09-18 16h56.08.135435 +0200,
109,0,109,0,2024-09-18_16:59:49.026512,,,,220.98353980015963,222.92011529998854,None,None,42.1,10.0,,,,97,003,2024-09-18_16h55.12.462,Waermeplatte_v76,2024.1.5,60,2024-09-18 16h56.08.135435 +0200,
110,0,110,0,2024-09-18_16:59:51.029284,,,,222.98587730014697,224.9209110001102,None,None,42.300000000000004,21.0,,,,97,003,2024-09-18_16h55.12.462,Waermeplatte_v76,2024.1.5,60,2024-09-18 16h56.08.135435 +0200,
111,0,111,0,2024-09-18_16:59:53.021546,,,,224.98431919980794,226.92032440006733,None,None,42.5,27.0,,,,97,003,2024-09-18_16h55.12.462,Waermeplatte_v76,2024.1.5,60,2024-09-18 16h56.08.135435 +0200,
112,0,112,0,2024-09-18_16:59:55.025231,,,,226.9842362999916,228.92063629999757,None,None,42.6,31.0,,,,97,003,2024-09-18_16h55.12.462,Waermeplatte_v76,2024.1.5,60,2024-09-18 16h56.08.135435 +0200,
113,0,113,0,2024-09-18_16:59:57.024784,,,,228.98473849985749,230.9200444999151,None,None,42.800000000000004,32.0,,,,97,003,2024-09-18_16h55.12.462,Waermeplatte_v76,2024.1.5,60,2024-09-18 16h56.08.135435 +0200,
114,0,114,0,2024-09-18_16:59:59.025155,,,,230.98564249975607,232.92032120004296,None,None,43.0,33.0,,,,97,003,2024-09-18_16h55.12.462,Waermeplatte_v76,2024.1.5,60,2024-09-18 16h56.08.135435 +0200,
115,0,115,0,2024-09-18_17:00:01.026034,,,,232.98382559977472,234.9193970998749,None,None,43.1,34.0,,,,97,003,2024-09-18_16h55.12.462,Waermeplatte_v76,2024.1.5,60,2024-09-18 16h56.08.135435 +0200,
116,0,116,0,2024-09-18_17:00:03.013736,,,,234.97999130003154,236.92137139989063,None,None,43.300000000000004,35.0,,,,97,003,2024-09-18_16h55.12.462,Waermeplatte_v76,2024.1.5,60,2024-09-18 16h56.08.135435 +0200,
117,0,117,0,2024-09-18_17:00:05.022012,,,,236.98397189984098,238.92129869991913,None,None,43.400000000000006,36.0,,,,97,003,2024-09-18_16h55.12.462,Waermeplatte_v76,2024.1.5,60,2024-09-18 16h56.08.135435 +0200,
118,0,118,0,2024-09-18_17:00:07.025591,,,,238.9846494998783,240.91960040014237,None,None,43.6,37.0,,,,97,003,2024-09-18_16h55.12.462,Waermeplatte_v76,2024.1.5,60,2024-09-18 16h56.08.135435 +0200,
119,0,119,0,2024-09-18_17:00:09.023693,,,,240.98255169996992,242.91840009996668,None,None,43.800000000000004,41.0,,,,97,003,2024-09-18_16h55.12.462,Waermeplatte_v76,2024.1.5,60,2024-09-18 16h56.08.135435 +0200,
120,0,120,0,2024-09-18_17:00:11.027476,,,,242.98464020015672,244.91929720016196,None,None,43.900000000000006,45.0,,,,97,003,2024-09-18_16h55.12.462,Waermeplatte_v76,2024.1.5,60,2024-09-18 16h56.08.135435 +0200,
121,0,121,0,2024-09-18_17:00:13.023604,,,,244.98298229975626,246.9194845999591,None,None,44.1,47.0,,,,97,003,2024-09-18_16h55.12.462,Waermeplatte_v76,2024.1.5,60,2024-09-18 16h56.08.135435 +0200,
122,0,122,0,2024-09-18_17:00:15.024214,,,,246.98222160013393,248.91943820007145,None,None,44.2,49.0,,,,97,003,2024-09-18_16h55.12.462,Waermeplatte_v76,2024.1.5,60,2024-09-18 16h56.08.135435 +0200,
123,0,123,0,2024-09-18_17:00:17.024650,,,,248.98196509992704,250.91998909972608,None,None,44.400000000000006,50.0,,,,97,003,2024-09-18_16h55.12.462,Waermeplatte_v76,2024.1.5,60,2024-09-18 16h56.08.135435 +0200,
124,0,124,0,2024-09-18_17:00:19.025088,,,,250.98418430006132,252.92051059985533,None,None,44.5,50.0,,,,97,003,2024-09-18_16h55.12.462,Waermeplatte_v76,2024.1.5,60,2024-09-18 16h56.08.135435 +0200,
125,0,125,0,2024-09-18_17:00:21.025042,,,,252.98294949997216,254.9186928998679,None,None,44.7,51.0,,,,97,003,2024-09-18_16h55.12.462,Waermeplatte_v76,2024.1.5,60,2024-09-18 16h56.08.135435 +0200,
126,0,126,0,2024-09-18_17:00:23.025469,,,,254.9827128998004,256.91928789997473,None,None,44.800000000000004,52.0,,,,97,003,2024-09-18_16h55.12.462,Waermeplatte_v76,2024.1.5,60,2024-09-18 16h56.08.135435 +0200,
127,0,127,0,2024-09-18_17:00:25.024649,,,,256.98255959991366,258.9183006999083,None,None,45.0,58.0,,,,97,003,2024-09-18_16h55.12.462,Waermeplatte_v76,2024.1.5,60,2024-09-18 16h56.08.135435 +0200,
128,0,128,0,2024-09-18_17:00:27.026037,,,,258.98236089991406,260.9192117997445,None,None,45.1,69.0,,,,97,003,2024-09-18_16h55.12.462,Waermeplatte_v76,2024.1.5,60,2024-09-18 16h56.08.135435 +0200,
129,0,129,0,2024-09-18_17:00:29.026031,,,,260.9827713998966,262.9184524999,None,None,45.2,70.0,,,,97,003,2024-09-18_16h55.12.462,Waermeplatte_v76,2024.1.5,60,2024-09-18 16h56.08.135435 +0200,
130,0,130,0,2024-09-18_17:00:31.021682,,,,262.98195759998634,264.91860770015046,None,None,45.400000000000006,73.0,,,,97,003,2024-09-18_16h55.12.462,Waermeplatte_v76,2024.1.5,60,2024-09-18 16h56.08.135435 +0200,
131,0,131,0,2024-09-18_17:00:33.021343,,,,264.98248260002583,266.918445199728,None,None,45.6,75.0,,,,97,003,2024-09-18_16h55.12.462,Waermeplatte_v76,2024.1.5,60,2024-09-18 16h56.08.135435 +0200,
132,0,132,0,2024-09-18_17:00:35.022710,,,,266.98159299977124,268.9185764999129,None,None,45.7,78.0,,,,97,003,2024-09-18_16h55.12.462,Waermeplatte_v76,2024.1.5,60,2024-09-18 16h56.08.135435 +0200,
133,0,133,0,2024-09-18_17:00:37.021905,,,,268.98278519976884,270.91937369992957,None,None,45.900000000000006,80.0,,,,97,003,2024-09-18_16h55.12.462,Waermeplatte_v76,2024.1.5,60,2024-09-18 16h56.08.135435 +0200,
134,0,134,0,2024-09-18_17:00:39.023474,,,,270.98272860003635,272.91723260004073,None,None,46.0,81.0,,,,97,003,2024-09-18_16h55.12.462,Waermeplatte_v76,2024.1.5,60,2024-09-18 16h56.08.135435 +0200,
135,0,135,0,2024-09-18_17:00:41.021665,,,,272.9813677999191,274.9175073001534,None,None,46.2,82.0,,,,97,003,2024-09-18_16h55.12.462,Waermeplatte_v76,2024.1.5,60,2024-09-18 16h56.08.135435 +0200,
136,0,136,0,2024-09-18_17:00:43.020524,,,,274.981509400066,276.91713920002803,None,None,46.400000000000006,84.0,,,,97,003,2024-09-18_16h55.12.462,Waermeplatte_v76,2024.1.5,60,2024-09-18 16h56.08.135435 +0200,
137,0,137,0,2024-09-18_17:00:45.022018,,,,276.9814899000339,278.9174887998961,None,None,46.5,86.0,,,,97,003,2024-09-18_16h55.12.462,Waermeplatte_v76,2024.1.5,60,2024-09-18 16h56.08.135435 +0200,
138,0,138,0,2024-09-18_17:00:47.022570,,,,278.9811860998161,280.91845140000805,None,None,46.7,88.0,,,,97,003,2024-09-18_16h55.12.462,Waermeplatte_v76,2024.1.5,60,2024-09-18 16h56.08.135435 +0200,
139,0,139,0,2024-09-18_17:00:49.020712,,,,280.981692600064,282.91848610015586,None,None,46.800000000000004,90.0,,,,97,003,2024-09-18_16h55.12.462,Waermeplatte_v76,2024.1.5,60,2024-09-18 16h56.08.135435 +0200,
140,0,140,0,2024-09-18_17:00:51.024959,,,,282.9826726000756,284.92191240005195,92.0,None,47.0,92.0,,,,97,003,2024-09-18_16h55.12.462,Waermeplatte_v76,2024.1.5,60,2024-09-18 16h56.08.135435 +0200,
141,0,141,0,2024-09-18_17:00:53.028379,,,,284.9880761001259,286.9197606998496,None,None,47.1,None,,,,97,003,2024-09-18_16h55.12.462,Waermeplatte_v76,2024.1.5,60,2024-09-18 16h56.08.135435 +0200,
142,0,142,0,2024-09-18_17:00:55.020417,,,,286.98474529990926,288.92246939986944,None,None,47.2,None,,,,97,003,2024-09-18_16h55.12.462,Waermeplatte_v76,2024.1.5,60,2024-09-18 16h56.08.135435 +0200,
143,0,143,0,2024-09-18_17:00:57.028164,,,,288.98640900012106,290.9198747999035,None,None,47.400000000000006,None,,,,97,003,2024-09-18_16h55.12.462,Waermeplatte_v76,2024.1.5,60,2024-09-18 16h56.08.135435 +0200,
144,0,144,0,2024-09-18_17:00:59.021391,,,,290.98326259991154,292.92069739988074,None,None,47.5,None,,,,97,003,2024-09-18_16h55.12.462,Waermeplatte_v76,2024.1.5,60,2024-09-18 16h56.08.135435 +0200,
145,0,145,0,2024-09-18_17:01:01.025938,,,,292.98547959979624,294.91844099992886,None,None,47.6,None,,,,97,003,2024-09-18_16h55.12.462,Waermeplatte_v76,2024.1.5,60,2024-09-18 16h56.08.135435 +0200,
146,0,146,0,2024-09-18_17:01:03.018450,,,,294.9823427000083,296.9214559998363,None,2,47.800000000000004,None,,,,97,003,2024-09-18_16h55.12.462,Waermeplatte_v76,2024.1.5,60,2024-09-18 16h56.08.135435 +0200,
,,,,,,,,,,,,,,297.03447039984167,297.0404284000397,306.9126699999906,97,003,2024-09-18_16h55.12.462,Waermeplatte_v76,2024.1.5,60,2024-09-18 16h56.08.135435 +0200,
