rating_loop.thisRepN,rating_loop.thisTrialN,rating_loop.thisN,rating_loop.thisIndex,thisRow.t,notes,WelcomeScreen.started,WelcomeScreen.stopped,trial.started,trial.stopped,sliderRating.response,slider_stop.response,temperature_PT,contact_force,sliderRating.markerPos,GoodbyScreen.started,text.started,GoodbyScreen.stopped,participant,session,date,expName,psychopyVersion,frameRate,expStart
,,,,,,0.008557300083339214,4.761457400396466,,,,,,,,,,,97,1,2024-11-18_17h24.28.806,Heat_Plate_v80,2024.1.5,60,2024-11-18 17h24.55.819375 +0100
,,,,,,,,,,,,,,,,,,97,1,2024-11-18_17h24.28.806,Heat_Plate_v80,2024.1.5,60,2024-11-18 17h24.55.819375 +0100
0,0,0,0,2024-11-18_17:25:01.111920,,,,5.278623499907553,7.279399200342596,None,None,29.6,0.0,None,,,,97,1,2024-11-18_17h24.28.806,Heat_Plate_v80,2024.1.5,60,2024-11-18 17h24.55.819375 +0100
1,0,1,0,2024-11-18_17:25:03.575814,,,,7.746375599876046,9.284860700368881,None,None,30.0,0.0,None,,,,97,1,2024-11-18_17h24.28.806,Heat_Plate_v80,2024.1.5,60,2024-11-18 17h24.55.819375 +0100
2,0,2,0,2024-11-18_17:25:05.580528,,,,9.751019700430334,11.283009400591254,None,None,30.3,0.0,None,,,,97,1,2024-11-18_17h24.28.806,Heat_Plate_v80,2024.1.5,60,2024-11-18 17h24.55.819375 +0100
3,0,3,0,2024-11-18_17:25:07.577930,,,,11.748583099804819,13.281555199995637,None,None,30.6,0.0,None,,,,97,1,2024-11-18_17h24.28.806,Heat_Plate_v80,2024.1.5,60,2024-11-18 17h24.55.819375 +0100
4,0,4,0,2024-11-18_17:25:09.580819,,,,13.747977199964225,15.283810299821198,1.0,None,30.700000000000003,0.0,1.0,,,,97,1,2024-11-18_17h24.28.806,Heat_Plate_v80,2024.1.5,60,2024-11-18 17h24.55.819375 +0100
5,0,5,0,2024-11-18_17:25:11.579289,,,,15.749774499796331,17.282183900475502,None,None,30.8,0.0,None,,,,97,1,2024-11-18_17h24.28.806,Heat_Plate_v80,2024.1.5,60,2024-11-18 17h24.55.819375 +0100
6,0,6,0,2024-11-18_17:25:13.577043,,,,17.747162699699402,19.2823686003685,41.0,None,30.8,0.1,41.0,,,,97,1,2024-11-18_17h24.28.806,Heat_Plate_v80,2024.1.5,60,2024-11-18 17h24.55.819375 +0100
7,0,7,0,2024-11-18_17:25:15.577822,,,,19.748326799832284,21.279892900027335,None,None,30.6,0.1,None,,,,97,1,2024-11-18_17h24.28.806,Heat_Plate_v80,2024.1.5,60,2024-11-18 17h24.55.819375 +0100
8,0,8,0,2024-11-18_17:25:17.585915,,,,21.744229500181973,23.279667200520635,73.0,None,30.5,0.1,73.0,,,,97,1,2024-11-18_17h24.28.806,Heat_Plate_v80,2024.1.5,60,2024-11-18 17h24.55.819375 +0100
9,0,9,0,2024-11-18_17:25:19.574159,,,,23.74511730019003,25.28040250018239,None,None,30.3,0.1,None,,,,97,1,2024-11-18_17h24.28.806,Heat_Plate_v80,2024.1.5,60,2024-11-18 17h24.55.819375 +0100
10,0,10,0,2024-11-18_17:25:21.599371,,,,25.746823799796402,27.2817539004609,63.0,None,30.1,0.1,63.0,,,,97,1,2024-11-18_17h24.28.806,Heat_Plate_v80,2024.1.5,60,2024-11-18 17h24.55.819375 +0100
11,0,11,0,2024-11-18_17:25:23.575267,,,,27.746447100304067,29.283568300306797,None,None,30.0,0.1,None,,,,97,1,2024-11-18_17h24.28.806,Heat_Plate_v80,2024.1.5,60,2024-11-18 17h24.55.819375 +0100
12,0,12,0,2024-11-18_17:25:25.581403,,,,29.748868600465357,31.280621400102973,None,None,29.900000000000002,0.1,None,,,,97,1,2024-11-18_17h24.28.806,Heat_Plate_v80,2024.1.5,60,2024-11-18 17h24.55.819375 +0100
13,0,13,0,2024-11-18_17:25:27.575849,,,,31.745815000496805,33.28015909995884,None,None,29.8,0.0,None,,,,97,1,2024-11-18_17h24.28.806,Heat_Plate_v80,2024.1.5,60,2024-11-18 17h24.55.819375 +0100
14,0,14,0,2024-11-18_17:25:29.582237,,,,33.74650220014155,35.28147609997541,None,None,29.8,0.0,None,,,,97,1,2024-11-18_17h24.28.806,Heat_Plate_v80,2024.1.5,60,2024-11-18 17h24.55.819375 +0100
15,0,15,0,2024-11-18_17:25:31.580370,,,,35.74684809986502,37.28055900055915,None,None,29.900000000000002,0.0,None,,,,97,1,2024-11-18_17h24.28.806,Heat_Plate_v80,2024.1.5,60,2024-11-18 17h24.55.819375 +0100
16,0,16,0,2024-11-18_17:25:33.577225,,,,37.745353899896145,39.280121999792755,None,None,29.900000000000002,36.8,None,,,,97,1,2024-11-18_17h24.28.806,Heat_Plate_v80,2024.1.5,60,2024-11-18 17h24.55.819375 +0100
17,0,17,0,2024-11-18_17:25:35.597004,,,,39.74469800014049,41.27715270034969,None,None,30.1,38.9,0.0,,,,97,1,2024-11-18_17h24.28.806,Heat_Plate_v80,2024.1.5,60,2024-11-18 17h24.55.819375 +0100
18,0,18,0,2024-11-18_17:25:37.576577,,,,41.74297200050205,43.28158020041883,0.0,None,30.3,3.7,0.0,,,,97,1,2024-11-18_17h24.28.806,Heat_Plate_v80,2024.1.5,60,2024-11-18 17h24.55.819375 +0100
19,0,19,0,2024-11-18_17:25:39.575578,,,,43.746931300498545,45.28224270045757,None,None,30.5,0.7,None,,,,97,1,2024-11-18_17h24.28.806,Heat_Plate_v80,2024.1.5,60,2024-11-18 17h24.55.819375 +0100
20,0,20,0,2024-11-18_17:25:41.575994,,,,45.74780820030719,47.28013909980655,None,None,30.700000000000003,0.7,None,,,,97,1,2024-11-18_17h24.28.806,Heat_Plate_v80,2024.1.5,60,2024-11-18 17h24.55.819375 +0100
21,0,21,0,2024-11-18_17:25:43.575485,,,,47.744413199834526,49.27980590052903,None,None,31.0,0.7,None,,,,97,1,2024-11-18_17h24.28.806,Heat_Plate_v80,2024.1.5,60,2024-11-18 17h24.55.819375 +0100
22,0,22,0,2024-11-18_17:25:45.578196,,,,49.74563719984144,51.28145849984139,None,None,31.200000000000003,0.6,None,,,,97,1,2024-11-18_17h24.28.806,Heat_Plate_v80,2024.1.5,60,2024-11-18 17h24.55.819375 +0100
23,0,23,0,2024-11-18_17:25:47.576523,,,,51.74723650049418,53.28019220009446,None,None,31.5,0.7,None,,,,97,1,2024-11-18_17h24.28.806,Heat_Plate_v80,2024.1.5,60,2024-11-18 17h24.55.819375 +0100
24,0,24,0,2024-11-18_17:25:49.575545,,,,53.745545600540936,55.27969500049949,None,None,31.700000000000003,0.6,None,,,,97,1,2024-11-18_17h24.28.806,Heat_Plate_v80,2024.1.5,60,2024-11-18 17h24.55.819375 +0100
25,0,25,0,2024-11-18_17:25:51.574484,,,,55.745267200283706,57.27997469995171,None,None,32.0,0.4,None,,,,97,1,2024-11-18_17h24.28.806,Heat_Plate_v80,2024.1.5,60,2024-11-18 17h24.55.819375 +0100
26,0,26,0,2024-11-18_17:25:53.572348,,,,57.744510100223124,59.28131819982082,None,None,32.2,11.3,None,,,,97,1,2024-11-18_17h24.28.806,Heat_Plate_v80,2024.1.5,60,2024-11-18 17h24.55.819375 +0100
27,0,27,0,2024-11-18_17:25:55.577188,,,,59.74754219967872,61.28081570006907,None,None,32.5,9.1,None,,,,97,1,2024-11-18_17h24.28.806,Heat_Plate_v80,2024.1.5,60,2024-11-18 17h24.55.819375 +0100
28,0,28,0,2024-11-18_17:25:57.576376,,,,61.746109399944544,63.278404200449586,None,None,32.7,13.3,None,,,,97,1,2024-11-18_17h24.28.806,Heat_Plate_v80,2024.1.5,60,2024-11-18 17h24.55.819375 +0100
29,0,29,0,2024-11-18_17:25:59.576717,,,,63.744524200446904,65.28152570035309,None,None,33.0,10.0,None,,,,97,1,2024-11-18_17h24.28.806,Heat_Plate_v80,2024.1.5,60,2024-11-18 17h24.55.819375 +0100
30,0,30,0,2024-11-18_17:26:01.579098,,,,65.7480477001518,67.28006920032203,None,None,33.300000000000004,0.9,None,,,,97,1,2024-11-18_17h24.28.806,Heat_Plate_v80,2024.1.5,60,2024-11-18 17h24.55.819375 +0100
31,0,31,0,2024-11-18_17:26:03.576687,,,,67.74608100019395,69.28223960008472,None,None,33.5,13.4,None,,,,97,1,2024-11-18_17h24.28.806,Heat_Plate_v80,2024.1.5,60,2024-11-18 17h24.55.819375 +0100
32,0,32,0,2024-11-18_17:26:05.579488,,,,69.74761029984802,71.27868620026857,None,None,33.800000000000004,18.9,None,,,,97,1,2024-11-18_17h24.28.806,Heat_Plate_v80,2024.1.5,60,2024-11-18 17h24.55.819375 +0100
33,0,33,0,2024-11-18_17:26:07.576944,,,,71.74467939976603,73.27885739970952,None,None,34.0,19.4,None,,,,97,1,2024-11-18_17h24.28.806,Heat_Plate_v80,2024.1.5,60,2024-11-18 17h24.55.819375 +0100
34,0,34,0,2024-11-18_17:26:09.576072,,,,73.74366230051965,75.27871740050614,None,None,34.300000000000004,17.6,None,,,,97,1,2024-11-18_17h24.28.806,Heat_Plate_v80,2024.1.5,60,2024-11-18 17h24.55.819375 +0100
35,0,35,0,2024-11-18_17:26:11.573542,,,,75.74391419999301,77.28001650050282,None,None,34.5,15.1,None,,,,97,1,2024-11-18_17h24.28.806,Heat_Plate_v80,2024.1.5,60,2024-11-18 17h24.55.819375 +0100
36,0,36,0,2024-11-18_17:26:13.573462,,,,77.74618799984455,79.28138769976795,None,None,34.7,35.7,None,,,,97,1,2024-11-18_17h24.28.806,Heat_Plate_v80,2024.1.5,60,2024-11-18 17h24.55.819375 +0100
37,0,37,0,2024-11-18_17:26:15.578444,,,,79.74673300050199,81.28141080029309,None,None,34.9,39.8,None,,,,97,1,2024-11-18_17h24.28.806,Heat_Plate_v80,2024.1.5,60,2024-11-18 17h24.55.819375 +0100
38,0,38,0,2024-11-18_17:26:17.577629,,,,81.74795180000365,83.27861999999732,None,None,35.1,8.7,None,,,,97,1,2024-11-18_17h24.28.806,Heat_Plate_v80,2024.1.5,60,2024-11-18 17h24.55.819375 +0100
39,0,39,0,2024-11-18_17:26:19.577254,,,,83.74379209987819,85.28018100000918,None,None,35.300000000000004,1.0,None,,,,97,1,2024-11-18_17h24.28.806,Heat_Plate_v80,2024.1.5,60,2024-11-18 17h24.55.819375 +0100
40,0,40,0,2024-11-18_17:26:21.577157,,,,85.74703660048544,87.27902050036937,None,None,35.4,13.6,None,,,,97,1,2024-11-18_17h24.28.806,Heat_Plate_v80,2024.1.5,60,2024-11-18 17h24.55.819375 +0100
41,0,41,0,2024-11-18_17:26:23.575286,,,,87.74559670034796,89.27773550059646,None,None,35.5,25.2,None,,,,97,1,2024-11-18_17h24.28.806,Heat_Plate_v80,2024.1.5,60,2024-11-18 17h24.55.819375 +0100
42,0,42,0,2024-11-18_17:26:25.570598,,,,89.74222530052066,91.277632500045,None,None,35.6,23.9,None,,,,97,1,2024-11-18_17h24.28.806,Heat_Plate_v80,2024.1.5,60,2024-11-18 17h24.55.819375 +0100
43,0,43,0,2024-11-18_17:26:27.573046,,,,91.74342240020633,93.27962080016732,None,None,35.7,28.9,None,,,,97,1,2024-11-18_17h24.28.806,Heat_Plate_v80,2024.1.5,60,2024-11-18 17h24.55.819375 +0100
44,0,44,0,2024-11-18_17:26:29.576715,,,,93.74551140051335,95.27961259987205,None,None,35.800000000000004,27.4,None,,,,97,1,2024-11-18_17h24.28.806,Heat_Plate_v80,2024.1.5,60,2024-11-18 17h24.55.819375 +0100
45,0,45,0,2024-11-18_17:26:31.577934,,,,95.7456491002813,97.27924120053649,None,None,35.800000000000004,23.9,None,,,,97,1,2024-11-18_17h24.28.806,Heat_Plate_v80,2024.1.5,60,2024-11-18 17h24.55.819375 +0100
46,0,46,0,2024-11-18_17:26:33.584500,,,,97.74554650019854,99.27675150055438,None,None,35.9,32.7,0.0,,,,97,1,2024-11-18_17h24.28.806,Heat_Plate_v80,2024.1.5,60,2024-11-18 17h24.55.819375 +0100
47,0,47,0,2024-11-18_17:26:35.576452,,,,99.74188600014895,101.27631010022014,None,None,35.9,35.3,0,,,,97,1,2024-11-18_17h24.28.806,Heat_Plate_v80,2024.1.5,60,2024-11-18 17h24.55.819375 +0100
48,0,48,0,2024-11-18_17:26:37.575817,,,,101.74067900050431,103.27463150024414,None,None,35.9,20.7,1.0,,,,97,1,2024-11-18_17h24.28.806,Heat_Plate_v80,2024.1.5,60,2024-11-18 17h24.55.819375 +0100
49,0,49,0,2024-11-18_17:26:39.576790,,,,103.74155160039663,105.27597470022738,None,None,35.9,8.9,1.0,,,,97,1,2024-11-18_17h24.28.806,Heat_Plate_v80,2024.1.5,60,2024-11-18 17h24.55.819375 +0100
50,0,50,0,2024-11-18_17:26:41.573331,,,,105.74117450043559,107.27398969978094,None,None,36.0,26.1,2.0,,,,97,1,2024-11-18_17h24.28.806,Heat_Plate_v80,2024.1.5,60,2024-11-18 17h24.55.819375 +0100
51,0,51,0,2024-11-18_17:26:43.577955,,,,107.74071440007538,109.2742030005902,None,None,36.0,25.1,2.0,,,,97,1,2024-11-18_17h24.28.806,Heat_Plate_v80,2024.1.5,60,2024-11-18 17h24.55.819375 +0100
52,0,52,0,2024-11-18_17:26:45.575141,,,,109.74073750060052,111.27519499976188,None,None,36.0,27.2,2.0,,,,97,1,2024-11-18_17h24.28.806,Heat_Plate_v80,2024.1.5,60,2024-11-18 17h24.55.819375 +0100
53,0,53,0,2024-11-18_17:26:47.577696,,,,111.74004209972918,113.27618420030922,None,None,36.0,35.4,2.0,,,,97,1,2024-11-18_17h24.28.806,Heat_Plate_v80,2024.1.5,60,2024-11-18 17h24.55.819375 +0100
54,0,54,0,2024-11-18_17:26:49.577739,,,,113.74173429980874,115.27504490036517,None,None,36.0,28.6,2.0,,,,97,1,2024-11-18_17h24.28.806,Heat_Plate_v80,2024.1.5,60,2024-11-18 17h24.55.819375 +0100
55,0,55,0,2024-11-18_17:26:51.572801,,,,115.73985899984837,117.27511170040816,None,None,35.9,28.7,0.0,,,,97,1,2024-11-18_17h24.28.806,Heat_Plate_v80,2024.1.5,60,2024-11-18 17h24.55.819375 +0100
56,0,56,0,2024-11-18_17:26:53.574837,,,,117.74023739993572,119.27395089995116,None,None,35.9,28.6,0,,,,97,1,2024-11-18_17h24.28.806,Heat_Plate_v80,2024.1.5,60,2024-11-18 17h24.55.819375 +0100
57,0,57,0,2024-11-18_17:26:55.573122,,,,119.73992550000548,121.2748453002423,None,None,35.9,29.4,0,,,,97,1,2024-11-18_17h24.28.806,Heat_Plate_v80,2024.1.5,60,2024-11-18 17h24.55.819375 +0100
58,0,58,0,2024-11-18_17:26:57.574921,,,,121.74062679987401,123.27522980049253,None,None,35.9,28.4,0,,,,97,1,2024-11-18_17h24.28.806,Heat_Plate_v80,2024.1.5,60,2024-11-18 17h24.55.819375 +0100
59,0,59,0,2024-11-18_17:26:59.577528,,,,123.7414466002956,125.27612620033324,None,None,35.800000000000004,27.7,0,,,,97,1,2024-11-18_17h24.28.806,Heat_Plate_v80,2024.1.5,60,2024-11-18 17h24.55.819375 +0100
60,0,60,0,2024-11-18_17:27:01.577869,,,,125.74126430042088,127.27532429993153,None,None,35.800000000000004,26.7,1.0,,,,97,1,2024-11-18_17h24.28.806,Heat_Plate_v80,2024.1.5,60,2024-11-18 17h24.55.819375 +0100
61,0,61,0,2024-11-18_17:27:03.571612,,,,127.74053740035743,129.27427130006254,None,None,35.800000000000004,38.7,0.0,,,,97,1,2024-11-18_17h24.28.806,Heat_Plate_v80,2024.1.5,60,2024-11-18 17h24.55.819375 +0100
62,0,62,0,2024-11-18_17:27:05.576122,,,,129.74019540008157,131.2746313000098,None,None,35.7,28.3,0.0,,,,97,1,2024-11-18_17h24.28.806,Heat_Plate_v80,2024.1.5,60,2024-11-18 17h24.55.819375 +0100
63,0,63,0,2024-11-18_17:27:07.572761,,,,131.74022379983217,133.27425429970026,None,None,35.7,27.9,0,,,,97,1,2024-11-18_17h24.28.806,Heat_Plate_v80,2024.1.5,60,2024-11-18 17h24.55.819375 +0100
64,0,64,0,2024-11-18_17:27:09.577519,,,,133.73941109981388,135.27389159984887,None,None,35.6,24.6,0,,,,97,1,2024-11-18_17h24.28.806,Heat_Plate_v80,2024.1.5,60,2024-11-18 17h24.55.819375 +0100
65,0,65,0,2024-11-18_17:27:11.575036,,,,135.73895740043372,137.27474260050803,None,None,35.6,26.5,0,,,,97,1,2024-11-18_17h24.28.806,Heat_Plate_v80,2024.1.5,60,2024-11-18 17h24.55.819375 +0100
66,0,66,0,2024-11-18_17:27:13.570486,,,,137.73942360002548,139.27328030019999,None,None,35.6,25.6,0,,,,97,1,2024-11-18_17h24.28.806,Heat_Plate_v80,2024.1.5,60,2024-11-18 17h24.55.819375 +0100
67,0,67,0,2024-11-18_17:27:15.575075,,,,139.7396050002426,141.2735502999276,None,None,35.5,26.0,0.0,,,,97,1,2024-11-18_17h24.28.806,Heat_Plate_v80,2024.1.5,60,2024-11-18 17h24.55.819375 +0100
68,0,68,0,2024-11-18_17:27:17.572298,,,,141.7389038996771,143.27377779968083,None,None,35.5,22.0,0.0,,,,97,1,2024-11-18_17h24.28.806,Heat_Plate_v80,2024.1.5,60,2024-11-18 17h24.55.819375 +0100
69,0,69,0,2024-11-18_17:27:19.573768,,,,143.73875490017235,145.2729273000732,None,None,35.4,22.2,0.0,,,,97,1,2024-11-18_17h24.28.806,Heat_Plate_v80,2024.1.5,60,2024-11-18 17h24.55.819375 +0100
70,0,70,0,2024-11-18_17:27:21.571654,,,,145.73880499973893,147.27423870004714,None,None,35.4,22.5,0.0,,,,97,1,2024-11-18_17h24.28.806,Heat_Plate_v80,2024.1.5,60,2024-11-18 17h24.55.819375 +0100
71,0,71,0,2024-11-18_17:27:23.573181,,,,147.7389954002574,149.27373110037297,None,None,35.4,24.7,0.0,,,,97,1,2024-11-18_17h24.28.806,Heat_Plate_v80,2024.1.5,60,2024-11-18 17h24.55.819375 +0100
72,0,72,0,2024-11-18_17:27:25.577362,,,,149.74027079995722,151.27403239998966,None,None,35.4,31.6,0.0,,,,97,1,2024-11-18_17h24.28.806,Heat_Plate_v80,2024.1.5,60,2024-11-18 17h24.55.819375 +0100
73,0,73,0,2024-11-18_17:27:27.576864,,,,151.74046680051833,153.27261750027537,None,None,35.300000000000004,31.5,0.0,,,,97,1,2024-11-18_17h24.28.806,Heat_Plate_v80,2024.1.5,60,2024-11-18 17h24.55.819375 +0100
74,0,74,0,2024-11-18_17:27:29.574441,,,,153.73767920024693,155.27367800008506,None,None,35.300000000000004,26.8,0.0,,,,97,1,2024-11-18_17h24.28.806,Heat_Plate_v80,2024.1.5,60,2024-11-18 17h24.55.819375 +0100
75,0,75,0,2024-11-18_17:27:31.575607,,,,155.73919080011547,157.27178379986435,None,None,35.300000000000004,33.9,0,,,,97,1,2024-11-18_17h24.28.806,Heat_Plate_v80,2024.1.5,60,2024-11-18 17h24.55.819375 +0100
76,0,76,0,2024-11-18_17:27:33.574664,,,,157.7374951997772,159.27210350055248,None,None,35.2,34.4,0,,,,97,1,2024-11-18_17h24.28.806,Heat_Plate_v80,2024.1.5,60,2024-11-18 17h24.55.819375 +0100
77,0,77,0,2024-11-18_17:27:35.574120,,,,159.7376431003213,161.2743317000568,None,None,35.2,34.1,0,,,,97,1,2024-11-18_17h24.28.806,Heat_Plate_v80,2024.1.5,60,2024-11-18 17h24.55.819375 +0100
78,0,78,0,2024-11-18_17:27:37.575554,,,,161.7393610002473,163.27299480047077,None,None,35.2,26.9,0,,,,97,1,2024-11-18_17h24.28.806,Heat_Plate_v80,2024.1.5,60,2024-11-18 17h24.55.819375 +0100
79,0,79,0,2024-11-18_17:27:39.575243,,,,163.73794620018452,165.27320719975978,None,None,35.2,26.5,0,,,,97,1,2024-11-18_17h24.28.806,Heat_Plate_v80,2024.1.5,60,2024-11-18 17h24.55.819375 +0100
80,0,80,0,2024-11-18_17:27:41.573991,,,,165.7383134001866,167.2713991003111,None,None,35.2,23.2,0.0,,,,97,1,2024-11-18_17h24.28.806,Heat_Plate_v80,2024.1.5,60,2024-11-18 17h24.55.819375 +0100
81,0,81,0,2024-11-18_17:27:43.571615,,,,167.7358216000721,169.2711207997054,None,None,35.2,26.9,0.0,,,,97,1,2024-11-18_17h24.28.806,Heat_Plate_v80,2024.1.5,60,2024-11-18 17h24.55.819375 +0100
82,0,82,0,2024-11-18_17:27:45.572379,,,,169.73578669968992,171.27294389996678,None,None,35.1,25.9,0.0,,,,97,1,2024-11-18_17h24.28.806,Heat_Plate_v80,2024.1.5,60,2024-11-18 17h24.55.819375 +0100
83,0,83,0,2024-11-18_17:27:47.575351,,,,171.73820780031383,173.27182259969413,None,None,35.1,25.3,0.0,,,,97,1,2024-11-18_17h24.28.806,Heat_Plate_v80,2024.1.5,60,2024-11-18 17h24.55.819375 +0100
84,0,84,0,2024-11-18_17:27:49.576614,,,,173.74002770055085,175.27255360037088,None,None,35.1,28.2,0.0,,,,97,1,2024-11-18_17h24.28.806,Heat_Plate_v80,2024.1.5,60,2024-11-18 17h24.55.819375 +0100
85,0,85,0,2024-11-18_17:27:51.576194,,,,175.7371880998835,177.27247290033847,None,None,35.1,26.0,0.0,,,,97,1,2024-11-18_17h24.28.806,Heat_Plate_v80,2024.1.5,60,2024-11-18 17h24.55.819375 +0100
86,0,86,0,2024-11-18_17:27:53.568641,,,,177.73636300023645,179.27194240037352,None,None,35.1,26.0,0.0,,,,97,1,2024-11-18_17h24.28.806,Heat_Plate_v80,2024.1.5,60,2024-11-18 17h24.55.819375 +0100
87,0,87,0,2024-11-18_17:27:55.570446,,,,179.73782370053232,181.27150639984757,None,None,35.1,24.9,0.0,,,,97,1,2024-11-18_17h24.28.806,Heat_Plate_v80,2024.1.5,60,2024-11-18 17h24.55.819375 +0100
88,0,88,0,2024-11-18_17:27:57.572983,,,,181.73858190048486,183.2711781002581,None,None,35.1,25.6,0.0,,,,97,1,2024-11-18_17h24.28.806,Heat_Plate_v80,2024.1.5,60,2024-11-18 17h24.55.819375 +0100
89,0,89,0,2024-11-18_17:27:59.575297,,,,183.7379687000066,185.27147290017456,None,None,35.1,26.2,0.0,,,,97,1,2024-11-18_17h24.28.806,Heat_Plate_v80,2024.1.5,60,2024-11-18 17h24.55.819375 +0100
90,0,90,0,2024-11-18_17:28:01.573947,,,,185.7365236999467,187.27048510033637,None,None,35.1,24.3,0.0,,,,97,1,2024-11-18_17h24.28.806,Heat_Plate_v80,2024.1.5,60,2024-11-18 17h24.55.819375 +0100
91,0,91,0,2024-11-18_17:28:03.573446,,,,187.73699180036783,189.27123500034213,None,None,35.1,22.7,0.0,,,,97,1,2024-11-18_17h24.28.806,Heat_Plate_v80,2024.1.5,60,2024-11-18 17h24.55.819375 +0100
92,0,92,0,2024-11-18_17:28:05.574428,,,,189.73731920029968,191.27249170001596,None,None,35.1,24.4,0.0,,,,97,1,2024-11-18_17h24.28.806,Heat_Plate_v80,2024.1.5,60,2024-11-18 17h24.55.819375 +0100
93,0,93,0,2024-11-18_17:28:07.573151,,,,191.73696359992027,193.27009989973158,None,None,35.1,24.0,1.0,,,,97,1,2024-11-18_17h24.28.806,Heat_Plate_v80,2024.1.5,60,2024-11-18 17h24.55.819375 +0100
94,0,94,0,2024-11-18_17:28:09.570508,,,,193.73476759996265,195.27073500026017,None,None,35.1,24.0,1.0,,,,97,1,2024-11-18_17h24.28.806,Heat_Plate_v80,2024.1.5,60,2024-11-18 17h24.55.819375 +0100
95,0,95,0,2024-11-18_17:28:11.574957,,,,195.7362404000014,197.27114660013467,None,None,35.1,24.3,1.0,,,,97,1,2024-11-18_17h24.28.806,Heat_Plate_v80,2024.1.5,60,2024-11-18 17h24.55.819375 +0100
96,0,96,0,2024-11-18_17:28:13.572151,,,,197.73839940037578,199.27144949976355,None,None,35.1,24.7,1.0,,,,97,1,2024-11-18_17h24.28.806,Heat_Plate_v80,2024.1.5,60,2024-11-18 17h24.55.819375 +0100
97,0,97,0,2024-11-18_17:28:15.572181,,,,199.73572729993612,201.26957750041038,None,None,35.1,24.6,1.0,,,,97,1,2024-11-18_17h24.28.806,Heat_Plate_v80,2024.1.5,60,2024-11-18 17h24.55.819375 +0100
98,0,98,0,2024-11-18_17:28:17.572603,,,,201.73713300004601,203.27074000053108,None,None,35.1,24.3,1.0,,,,97,1,2024-11-18_17h24.28.806,Heat_Plate_v80,2024.1.5,60,2024-11-18 17h24.55.819375 +0100
99,0,99,0,2024-11-18_17:28:19.568039,,,,203.73568349983543,205.2699098996818,None,None,35.2,24.2,1.0,,,,97,1,2024-11-18_17h24.28.806,Heat_Plate_v80,2024.1.5,60,2024-11-18 17h24.55.819375 +0100
100,0,100,0,2024-11-18_17:28:21.570072,,,,205.73694340046495,207.27075510006398,None,None,35.300000000000004,24.9,1.0,,,,97,1,2024-11-18_17h24.28.806,Heat_Plate_v80,2024.1.5,60,2024-11-18 17h24.55.819375 +0100
101,0,101,0,2024-11-18_17:28:23.574734,,,,207.73617780022323,209.27061829995364,None,None,35.4,24.7,2.0,,,,97,1,2024-11-18_17h24.28.806,Heat_Plate_v80,2024.1.5,60,2024-11-18 17h24.55.819375 +0100
102,0,102,0,2024-11-18_17:28:25.571848,,,,209.73699690029025,211.27043160051107,None,None,35.5,24.8,2.0,,,,97,1,2024-11-18_17h24.28.806,Heat_Plate_v80,2024.1.5,60,2024-11-18 17h24.55.819375 +0100
103,0,103,0,2024-11-18_17:28:27.573727,,,,211.7384504005313,213.26926650013775,None,None,35.6,25.8,3.0,,,,97,1,2024-11-18_17h24.28.806,Heat_Plate_v80,2024.1.5,60,2024-11-18 17h24.55.819375 +0100
104,0,104,0,2024-11-18_17:28:29.575223,,,,213.73644120059907,215.27052330039442,None,None,35.800000000000004,25.5,4.0,,,,97,1,2024-11-18_17h24.28.806,Heat_Plate_v80,2024.1.5,60,2024-11-18 17h24.55.819375 +0100
105,0,105,0,2024-11-18_17:28:31.571442,,,,215.7359295003116,217.27112840022892,None,None,35.9,26.6,5.0,,,,97,1,2024-11-18_17h24.28.806,Heat_Plate_v80,2024.1.5,60,2024-11-18 17h24.55.819375 +0100
106,0,106,0,2024-11-18_17:28:33.571831,,,,217.73666520044208,219.27080880012363,None,None,36.1,26.2,9.0,,,,97,1,2024-11-18_17h24.28.806,Heat_Plate_v80,2024.1.5,60,2024-11-18 17h24.55.819375 +0100
107,0,107,0,2024-11-18_17:28:35.569533,,,,219.7361572002992,221.26886070054024,None,None,36.300000000000004,26.2,12.0,,,,97,1,2024-11-18_17h24.28.806,Heat_Plate_v80,2024.1.5,60,2024-11-18 17h24.55.819375 +0100
108,0,108,0,2024-11-18_17:28:37.568327,,,,221.73567610047758,223.2686499003321,None,None,36.5,26.8,14.0,,,,97,1,2024-11-18_17h24.28.806,Heat_Plate_v80,2024.1.5,60,2024-11-18 17h24.55.819375 +0100
109,0,109,0,2024-11-18_17:28:39.566424,,,,223.7344059003517,225.2686031004414,None,None,36.6,27.6,16.0,,,,97,1,2024-11-18_17h24.28.806,Heat_Plate_v80,2024.1.5,60,2024-11-18 17h24.55.819375 +0100
110,0,110,0,2024-11-18_17:28:41.572569,,,,225.73503550048918,227.2699311003089,None,None,36.800000000000004,27.4,17.0,,,,97,1,2024-11-18_17h24.28.806,Heat_Plate_v80,2024.1.5,60,2024-11-18 17h24.55.819375 +0100
111,0,111,0,2024-11-18_17:28:43.569188,,,,227.73522210028023,229.26892830058932,None,None,37.0,27.7,17.0,,,,97,1,2024-11-18_17h24.28.806,Heat_Plate_v80,2024.1.5,60,2024-11-18 17h24.55.819375 +0100
112,0,112,0,2024-11-18_17:28:45.569293,,,,229.734211999923,231.2695366004482,None,None,37.2,27.7,18.0,,,,97,1,2024-11-18_17h24.28.806,Heat_Plate_v80,2024.1.5,60,2024-11-18 17h24.55.819375 +0100
113,0,113,0,2024-11-18_17:28:47.571273,,,,231.7351869000122,233.26975829992443,None,None,37.4,27.6,18.0,,,,97,1,2024-11-18_17h24.28.806,Heat_Plate_v80,2024.1.5,60,2024-11-18 17h24.55.819375 +0100
114,0,114,0,2024-11-18_17:28:49.567021,,,,233.7345893997699,235.26878830045462,None,None,37.6,27.3,18.0,,,,97,1,2024-11-18_17h24.28.806,Heat_Plate_v80,2024.1.5,60,2024-11-18 17h24.55.819375 +0100
115,0,115,0,2024-11-18_17:28:51.569500,,,,235.73424699995667,237.26928310003132,None,None,37.800000000000004,27.1,18.0,,,,97,1,2024-11-18_17h24.28.806,Heat_Plate_v80,2024.1.5,60,2024-11-18 17h24.55.819375 +0100
116,0,116,0,2024-11-18_17:28:53.570588,,,,237.73300040047616,239.26904780045152,None,None,38.0,27.8,18.0,,,,97,1,2024-11-18_17h24.28.806,Heat_Plate_v80,2024.1.5,60,2024-11-18 17h24.55.819375 +0100
117,0,117,0,2024-11-18_17:28:55.564671,,,,239.73387080058455,241.26869740057737,None,None,38.300000000000004,27.5,18.0,,,,97,1,2024-11-18_17h24.28.806,Heat_Plate_v80,2024.1.5,60,2024-11-18 17h24.55.819375 +0100
118,0,118,0,2024-11-18_17:28:57.569934,,,,241.7349584000185,243.26897309999913,None,None,38.5,27.3,18.0,,,,97,1,2024-11-18_17h24.28.806,Heat_Plate_v80,2024.1.5,60,2024-11-18 17h24.55.819375 +0100
119,0,119,0,2024-11-18_17:28:59.572803,,,,243.73520290013403,245.26911780051887,None,None,38.7,27.4,18.0,,,,97,1,2024-11-18_17h24.28.806,Heat_Plate_v80,2024.1.5,60,2024-11-18 17h24.55.819375 +0100
120,0,120,0,2024-11-18_17:29:01.571790,,,,245.73456070013344,247.26814970001578,None,None,38.900000000000006,27.1,18.0,,,,97,1,2024-11-18_17h24.28.806,Heat_Plate_v80,2024.1.5,60,2024-11-18 17h24.55.819375 +0100
121,0,121,0,2024-11-18_17:29:03.566700,,,,247.73369039967656,249.2686541005969,None,None,39.1,27.3,18.0,,,,97,1,2024-11-18_17h24.28.806,Heat_Plate_v80,2024.1.5,60,2024-11-18 17h24.55.819375 +0100
122,0,122,0,2024-11-18_17:29:05.571008,,,,249.7335363002494,251.26950160041451,None,None,39.300000000000004,27.9,18.0,,,,97,1,2024-11-18_17h24.28.806,Heat_Plate_v80,2024.1.5,60,2024-11-18 17h24.55.819375 +0100
123,0,123,0,2024-11-18_17:29:07.571322,,,,251.7352496003732,253.26717879995704,None,None,39.5,26.8,18.0,,,,97,1,2024-11-18_17h24.28.806,Heat_Plate_v80,2024.1.5,60,2024-11-18 17h24.55.819375 +0100
124,0,124,0,2024-11-18_17:29:09.569404,,,,253.73300760053098,255.26806339994073,None,None,39.7,27.4,18.0,,,,97,1,2024-11-18_17h24.28.806,Heat_Plate_v80,2024.1.5,60,2024-11-18 17h24.55.819375 +0100
125,0,125,0,2024-11-18_17:29:11.566967,,,,255.7324072998017,257.2675836002454,None,None,39.800000000000004,27.3,18.0,,,,97,1,2024-11-18_17h24.28.806,Heat_Plate_v80,2024.1.5,60,2024-11-18 17h24.55.819375 +0100
126,0,126,0,2024-11-18_17:29:13.566429,,,,257.73384779971093,259.2685834998265,None,None,40.0,27.5,18.0,,,,97,1,2024-11-18_17h24.28.806,Heat_Plate_v80,2024.1.5,60,2024-11-18 17h24.55.819375 +0100
127,0,127,0,2024-11-18_17:29:15.573254,,,,259.73504710011184,261.267753300257,None,None,40.2,27.6,18.0,,,,97,1,2024-11-18_17h24.28.806,Heat_Plate_v80,2024.1.5,60,2024-11-18 17h24.55.819375 +0100
128,0,128,0,2024-11-18_17:29:17.567427,,,,261.73320430051535,263.26750850025564,None,None,40.400000000000006,27.1,18.0,,,,97,1,2024-11-18_17h24.28.806,Heat_Plate_v80,2024.1.5,60,2024-11-18 17h24.55.819375 +0100
129,0,129,0,2024-11-18_17:29:19.566852,,,,263.7330457000062,265.26834100019187,None,None,40.5,27.7,18.0,,,,97,1,2024-11-18_17h24.28.806,Heat_Plate_v80,2024.1.5,60,2024-11-18 17h24.55.819375 +0100
130,0,130,0,2024-11-18_17:29:21.565986,,,,265.7337549002841,267.26633349992335,None,None,40.7,27.6,21.0,,,,97,1,2024-11-18_17h24.28.806,Heat_Plate_v80,2024.1.5,60,2024-11-18 17h24.55.819375 +0100
131,0,131,0,2024-11-18_17:29:23.567120,,,,267.7331330003217,269.267611999996,None,None,40.800000000000004,28.9,24.0,,,,97,1,2024-11-18_17h24.28.806,Heat_Plate_v80,2024.1.5,60,2024-11-18 17h24.55.819375 +0100
132,0,132,0,2024-11-18_17:29:25.562261,,,,269.7312564998865,271.2670315997675,None,None,41.0,32.1,28.0,,,,97,1,2024-11-18_17h24.28.806,Heat_Plate_v80,2024.1.5,60,2024-11-18 17h24.55.819375 +0100
133,0,133,0,2024-11-18_17:29:27.567775,,,,271.7330239005387,273.2675878005102,None,None,41.2,32.0,33.0,,,,97,1,2024-11-18_17h24.28.806,Heat_Plate_v80,2024.1.5,60,2024-11-18 17h24.55.819375 +0100
134,0,134,0,2024-11-18_17:29:29.564880,,,,273.7322807004675,275.2660697000101,None,None,41.300000000000004,32.3,38.0,,,,97,1,2024-11-18_17h24.28.806,Heat_Plate_v80,2024.1.5,60,2024-11-18 17h24.55.819375 +0100
135,0,135,0,2024-11-18_17:29:31.561909,,,,275.7315653003752,277.26621680054814,None,None,41.5,33.3,43.0,,,,97,1,2024-11-18_17h24.28.806,Heat_Plate_v80,2024.1.5,60,2024-11-18 17h24.55.819375 +0100
136,0,136,0,2024-11-18_17:29:33.564391,,,,277.73205479979515,279.267067800276,None,None,41.7,33.0,46.0,,,,97,1,2024-11-18_17h24.28.806,Heat_Plate_v80,2024.1.5,60,2024-11-18 17h24.55.819375 +0100
137,0,137,0,2024-11-18_17:29:35.566887,,,,279.73248390015215,281.26718590036035,None,None,41.800000000000004,32.6,50.0,,,,97,1,2024-11-18_17h24.28.806,Heat_Plate_v80,2024.1.5,60,2024-11-18 17h24.55.819375 +0100
138,0,138,0,2024-11-18_17:29:37.564924,,,,281.7323529999703,283.2667123004794,None,None,42.0,32.6,54.0,,,,97,1,2024-11-18_17h24.28.806,Heat_Plate_v80,2024.1.5,60,2024-11-18 17h24.55.819375 +0100
139,0,139,0,2024-11-18_17:29:39.563539,,,,283.7318695001304,285.2673003003001,None,None,42.1,32.9,55.0,,,,97,1,2024-11-18_17h24.28.806,Heat_Plate_v80,2024.1.5,60,2024-11-18 17h24.55.819375 +0100
140,0,140,0,2024-11-18_17:29:41.566402,,,,285.73258499987423,287.26613259967417,None,None,42.300000000000004,32.5,56.0,,,,97,1,2024-11-18_17h24.28.806,Heat_Plate_v80,2024.1.5,60,2024-11-18 17h24.55.819375 +0100
141,0,141,0,2024-11-18_17:29:43.566790,,,,287.73259710054845,289.2666923003271,None,None,42.5,31.4,58.0,,,,97,1,2024-11-18_17h24.28.806,Heat_Plate_v80,2024.1.5,60,2024-11-18 17h24.55.819375 +0100
142,0,142,0,2024-11-18_17:29:45.561476,,,,289.7310424000025,291.26680439990014,None,None,42.6,30.8,60.0,,,,97,1,2024-11-18_17h24.28.806,Heat_Plate_v80,2024.1.5,60,2024-11-18 17h24.55.819375 +0100
143,0,143,0,2024-11-18_17:29:47.565116,,,,291.7323454003781,293.2659772001207,None,None,42.800000000000004,31.0,61.0,,,,97,1,2024-11-18_17h24.28.806,Heat_Plate_v80,2024.1.5,60,2024-11-18 17h24.55.819375 +0100
144,0,144,0,2024-11-18_17:29:49.564562,,,,293.73073930013925,295.2673329003155,None,None,43.0,31.1,62.0,,,,97,1,2024-11-18_17h24.28.806,Heat_Plate_v80,2024.1.5,60,2024-11-18 17h24.55.819375 +0100
145,0,145,0,2024-11-18_17:29:51.562837,,,,295.7313814004883,297.26450110040605,None,None,43.1,31.2,63.0,,,,97,1,2024-11-18_17h24.28.806,Heat_Plate_v80,2024.1.5,60,2024-11-18 17h24.55.819375 +0100
146,0,146,0,2024-11-18_17:29:53.559017,,,,297.72780629992485,299.26658840011805,None,None,43.300000000000004,31.1,63.0,,,,97,1,2024-11-18_17h24.28.806,Heat_Plate_v80,2024.1.5,60,2024-11-18 17h24.55.819375 +0100
147,0,147,0,2024-11-18_17:29:55.561156,,,,299.72987719997764,301.2662960002199,None,None,43.400000000000006,31.0,63.0,,,,97,1,2024-11-18_17h24.28.806,Heat_Plate_v80,2024.1.5,60,2024-11-18 17h24.55.819375 +0100
148,0,148,0,2024-11-18_17:29:57.563122,,,,301.73041050042957,303.2843869999051,None,None,43.6,31.0,64.0,,,,97,1,2024-11-18_17h24.28.806,Heat_Plate_v80,2024.1.5,60,2024-11-18 17h24.55.819375 +0100
149,0,149,0,2024-11-18_17:29:59.581929,,,,303.7492412002757,305.28391159977764,None,None,43.7,30.3,64.0,,,,97,1,2024-11-18_17h24.28.806,Heat_Plate_v80,2024.1.5,60,2024-11-18 17h24.55.819375 +0100
150,0,150,0,2024-11-18_17:30:01.586694,,,,305.7492837002501,307.28403030056506,None,None,43.900000000000006,30.8,64.0,,,,97,1,2024-11-18_17h24.28.806,Heat_Plate_v80,2024.1.5,60,2024-11-18 17h24.55.819375 +0100
151,0,151,0,2024-11-18_17:30:03.580899,,,,307.7483598003164,309.28386020008475,None,None,44.0,30.6,65.0,,,,97,1,2024-11-18_17h24.28.806,Heat_Plate_v80,2024.1.5,60,2024-11-18 17h24.55.819375 +0100
152,0,152,0,2024-11-18_17:30:05.577571,,,,309.7476188996807,311.28363410010934,None,None,44.2,30.8,66.0,,,,97,1,2024-11-18_17h24.28.806,Heat_Plate_v80,2024.1.5,60,2024-11-18 17h24.55.819375 +0100
153,0,153,0,2024-11-18_17:30:07.577149,,,,311.7474552998319,313.28287150058895,None,None,44.400000000000006,30.6,69.0,,,,97,1,2024-11-18_17h24.28.806,Heat_Plate_v80,2024.1.5,60,2024-11-18 17h24.55.819375 +0100
154,0,154,0,2024-11-18_17:30:09.579306,,,,313.74868550058454,315.28267380036414,None,None,44.5,30.5,72.0,,,,97,1,2024-11-18_17h24.28.806,Heat_Plate_v80,2024.1.5,60,2024-11-18 17h24.55.819375 +0100
155,0,155,0,2024-11-18_17:30:11.576440,,,,315.7467656005174,317.28231870010495,None,None,44.7,30.1,75.0,,,,97,1,2024-11-18_17h24.28.806,Heat_Plate_v80,2024.1.5,60,2024-11-18 17h24.55.819375 +0100
156,0,156,0,2024-11-18_17:30:13.578855,,,,317.74616339989007,319.2803778005764,None,None,44.800000000000004,29.7,77.0,,,,97,1,2024-11-18_17h24.28.806,Heat_Plate_v80,2024.1.5,60,2024-11-18 17h24.55.819375 +0100
157,0,157,0,2024-11-18_17:30:15.576923,,,,319.7447557998821,321.28124359995127,None,None,45.0,29.8,79.0,,,,97,1,2024-11-18_17h24.28.806,Heat_Plate_v80,2024.1.5,60,2024-11-18 17h24.55.819375 +0100
158,0,158,0,2024-11-18_17:30:17.578713,,,,321.74646120052785,323.2819122001529,None,None,45.2,30.1,81.0,,,,97,1,2024-11-18_17h24.28.806,Heat_Plate_v80,2024.1.5,60,2024-11-18 17h24.55.819375 +0100
159,0,159,0,2024-11-18_17:30:19.577104,,,,323.74652350042015,325.2815461996943,None,None,45.300000000000004,30.0,83.0,,,,97,1,2024-11-18_17h24.28.806,Heat_Plate_v80,2024.1.5,60,2024-11-18 17h24.55.819375 +0100
160,0,160,0,2024-11-18_17:30:21.579967,,,,325.7467644000426,327.2814049003646,None,None,45.5,29.7,84.0,,,,97,1,2024-11-18_17h24.28.806,Heat_Plate_v80,2024.1.5,60,2024-11-18 17h24.55.819375 +0100
161,0,161,0,2024-11-18_17:30:23.576507,,,,327.7466377997771,329.28209310024977,None,None,45.6,29.8,85.0,,,,97,1,2024-11-18_17h24.28.806,Heat_Plate_v80,2024.1.5,60,2024-11-18 17h24.55.819375 +0100
162,0,162,0,2024-11-18_17:30:25.580121,,,,329.7480439003557,331.27970529999584,None,None,45.800000000000004,29.8,86.0,,,,97,1,2024-11-18_17h24.28.806,Heat_Plate_v80,2024.1.5,60,2024-11-18 17h24.55.819375 +0100
163,0,163,0,2024-11-18_17:30:27.577687,,,,331.746625199914,333.28154680039734,None,None,45.900000000000006,29.5,87.0,,,,97,1,2024-11-18_17h24.28.806,Heat_Plate_v80,2024.1.5,60,2024-11-18 17h24.55.819375 +0100
164,0,164,0,2024-11-18_17:30:29.579784,,,,333.7479038005695,335.28050180058926,None,None,46.1,29.6,88.0,,,,97,1,2024-11-18_17h24.28.806,Heat_Plate_v80,2024.1.5,60,2024-11-18 17h24.55.819375 +0100
165,0,165,0,2024-11-18_17:30:31.580696,,,,335.7473536999896,337.28055980056524,None,None,46.2,29.4,90.0,,,,97,1,2024-11-18_17h24.28.806,Heat_Plate_v80,2024.1.5,60,2024-11-18 17h24.55.819375 +0100
166,0,166,0,2024-11-18_17:30:33.577453,,,,337.7461091997102,339.280835499987,None,None,46.400000000000006,28.5,91.0,,,,97,1,2024-11-18_17h24.28.806,Heat_Plate_v80,2024.1.5,60,2024-11-18 17h24.55.819375 +0100
167,0,167,0,2024-11-18_17:30:35.577423,,,,339.74643039982766,341.27941079996526,None,None,46.5,26.0,92.0,,,,97,1,2024-11-18_17h24.28.806,Heat_Plate_v80,2024.1.5,60,2024-11-18 17h24.55.819375 +0100
168,0,168,0,2024-11-18_17:30:37.576938,,,,341.74485290050507,343.2813975000754,95.0,None,46.7,1.0,95.0,,,,97,1,2024-11-18_17h24.28.806,Heat_Plate_v80,2024.1.5,60,2024-11-18 17h24.55.819375 +0100
169,0,169,0,2024-11-18_17:30:39.580176,,,,343.74718379974365,345.28251990024,None,None,46.800000000000004,1.0,None,,,,97,1,2024-11-18_17h24.28.806,Heat_Plate_v80,2024.1.5,60,2024-11-18 17h24.55.819375 +0100
170,0,170,0,2024-11-18_17:30:41.576233,,,,345.74800860043615,347.28329070005566,None,None,47.0,0.9,None,,,,97,1,2024-11-18_17h24.28.806,Heat_Plate_v80,2024.1.5,60,2024-11-18 17h24.55.819375 +0100
171,0,171,0,2024-11-18_17:30:43.581644,,,,347.7488216999918,349.28572560008615,None,None,47.1,0.9,None,,,,97,1,2024-11-18_17h24.28.806,Heat_Plate_v80,2024.1.5,60,2024-11-18 17h24.55.819375 +0100
172,0,172,0,2024-11-18_17:30:45.576767,,,,349.7498470004648,351.28413979988545,None,None,47.300000000000004,0.9,None,,,,97,1,2024-11-18_17h24.28.806,Heat_Plate_v80,2024.1.5,60,2024-11-18 17h24.55.819375 +0100
173,0,173,0,2024-11-18_17:30:47.578301,,,,351.748625700362,353.28440309967846,None,None,47.5,0.9,None,,,,97,1,2024-11-18_17h24.28.806,Heat_Plate_v80,2024.1.5,60,2024-11-18 17h24.55.819375 +0100
174,0,174,0,2024-11-18_17:30:49.579976,,,,353.7504035998136,355.2841114997864,None,None,47.6,0.9,None,,,,97,1,2024-11-18_17h24.28.806,Heat_Plate_v80,2024.1.5,60,2024-11-18 17h24.55.819375 +0100
175,0,175,0,2024-11-18_17:30:51.579936,,,,355.75054679997265,357.2804872998968,None,None,47.800000000000004,0.9,None,,,,97,1,2024-11-18_17h24.28.806,Heat_Plate_v80,2024.1.5,60,2024-11-18 17h24.55.819375 +0100
176,0,176,0,2024-11-18_17:30:53.574009,,,,357.74465680029243,359.2832653997466,None,None,47.900000000000006,0.9,None,,,,97,1,2024-11-18_17h24.28.806,Heat_Plate_v80,2024.1.5,60,2024-11-18 17h24.55.819375 +0100
177,0,177,0,2024-11-18_17:30:55.577809,,,,359.7486198004335,361.28078920021653,None,None,48.0,0.9,None,,,,97,1,2024-11-18_17h24.28.806,Heat_Plate_v80,2024.1.5,60,2024-11-18 17h24.55.819375 +0100
178,0,178,0,2024-11-18_17:30:57.579261,,,,361.74637440033257,363.28213530033827,None,None,48.1,0.9,None,,,,97,1,2024-11-18_17h24.28.806,Heat_Plate_v80,2024.1.5,60,2024-11-18 17h24.55.819375 +0100
179,0,179,0,2024-11-18_17:30:59.574484,,,,363.74641770031303,365.2829788001254,None,None,48.2,0.9,None,,,,97,1,2024-11-18_17h24.28.806,Heat_Plate_v80,2024.1.5,60,2024-11-18 17h24.55.819375 +0100
,,,,,,,,,,,,,,,365.74625399988145,365.75166700035334,375.27487770002335,97,1,2024-11-18_17h24.28.806,Heat_Plate_v80,2024.1.5,60,2024-11-18 17h24.55.819375 +0100
