rating_loop.thisRepN,rating_loop.thisTrialN,rating_loop.thisN,rating_loop.thisIndex,thisRow.t,notes,WelcomeScreen.started,WelcomeScreen.stopped,trial.started,trial.stopped,sliderRating.response,slider_stop.response,temperature_PT,contact_force,sliderRating.markerPos,GoodbyScreen.started,text.started,GoodbyScreen.stopped,participant,session,date,expName,psychopyVersion,frameRate,expStart
,,,,,,0.006495200097560883,2.206788600422442,,,,,,,,,,,97,2,2024-11-18_17h35.36.423,Heat_Plate_v80,2024.1.5,60,2024-11-18 17h35.50.506686 +0100
,,,,,,,,,,,,,,,,,,97,2,2024-11-18_17h35.36.423,Heat_Plate_v80,2024.1.5,60,2024-11-18 17h35.50.506686 +0100
0,0,0,0,2024-11-18_17:35:53.247405,,,,2.724734600633383,4.730609800666571,None,None,39.5,0.0,None,,,,97,2,2024-11-18_17h35.36.423,Heat_Plate_v80,2024.1.5,60,2024-11-18 17h35.50.506686 +0100
1,0,1,0,2024-11-18_17:35:55.718023,,,,5.19692310038954,6.730168499983847,None,None,39.2,0.0,None,,,,97,2,2024-11-18_17h35.36.423,Heat_Plate_v80,2024.1.5,60,2024-11-18 17h35.50.506686 +0100
2,0,2,0,2024-11-18_17:35:57.715369,,,,7.196741000749171,8.72936060000211,None,None,38.900000000000006,0.0,None,,,,97,2,2024-11-18_17h35.36.423,Heat_Plate_v80,2024.1.5,60,2024-11-18 17h35.50.506686 +0100
3,0,3,0,2024-11-18_17:35:59.713503,,,,9.194696200080216,10.728070900775492,None,None,38.7,0.0,None,,,,97,2,2024-11-18_17h35.36.423,Heat_Plate_v80,2024.1.5,60,2024-11-18 17h35.50.506686 +0100
4,0,4,0,2024-11-18_17:36:01.711385,,,,11.192722800187767,12.72911259997636,None,None,38.6,0.1,None,,,,97,2,2024-11-18_17h35.36.423,Heat_Plate_v80,2024.1.5,60,2024-11-18 17h35.50.506686 +0100
5,0,5,0,2024-11-18_17:36:03.718765,,,,13.194323300383985,14.729846199974418,None,None,38.6,0.1,None,,,,97,2,2024-11-18_17h35.36.423,Heat_Plate_v80,2024.1.5,60,2024-11-18 17h35.50.506686 +0100
6,0,6,0,2024-11-18_17:36:05.714933,,,,15.196321700699627,16.72975580021739,None,None,38.7,0.1,None,,,,97,2,2024-11-18_17h35.36.423,Heat_Plate_v80,2024.1.5,60,2024-11-18 17h35.50.506686 +0100
7,0,7,0,2024-11-18_17:36:07.716323,,,,17.19665060006082,18.7299188002944,None,None,38.800000000000004,0.0,None,,,,97,2,2024-11-18_17h35.36.423,Heat_Plate_v80,2024.1.5,60,2024-11-18 17h35.50.506686 +0100
8,0,8,0,2024-11-18_17:36:09.716928,,,,19.1951048001647,20.729751400649548,None,None,39.0,0.0,None,,,,97,2,2024-11-18_17h35.36.423,Heat_Plate_v80,2024.1.5,60,2024-11-18 17h35.50.506686 +0100
9,0,9,0,2024-11-18_17:36:11.715886,,,,21.19569930061698,22.728477300144732,None,None,39.1,0.0,None,,,,97,2,2024-11-18_17h35.36.423,Heat_Plate_v80,2024.1.5,60,2024-11-18 17h35.50.506686 +0100
10,0,10,0,2024-11-18_17:36:13.715104,,,,23.194096500054002,24.727996500208974,None,None,39.2,6.0,None,,,,97,2,2024-11-18_17h35.36.423,Heat_Plate_v80,2024.1.5,60,2024-11-18 17h35.50.506686 +0100
11,0,11,0,2024-11-18_17:36:15.711886,,,,25.193082000128925,26.726026000455022,None,None,39.300000000000004,8.8,61.0,,,,97,2,2024-11-18_17h35.36.423,Heat_Plate_v80,2024.1.5,60,2024-11-18 17h35.50.506686 +0100
12,0,12,0,2024-11-18_17:36:17.719730,,,,27.19169900007546,28.726831800304353,None,None,39.300000000000004,6.2,None,,,,97,2,2024-11-18_17h35.36.423,Heat_Plate_v80,2024.1.5,60,2024-11-18 17h35.50.506686 +0100
13,0,13,0,2024-11-18_17:36:19.713517,,,,29.192429900169373,30.72460540011525,None,None,39.300000000000004,11.4,49.0,,,,97,2,2024-11-18_17h35.36.423,Heat_Plate_v80,2024.1.5,60,2024-11-18 17h35.50.506686 +0100
14,0,14,0,2024-11-18_17:36:21.709562,,,,31.190272300504148,32.72584570012987,None,None,39.2,8.5,None,,,,97,2,2024-11-18_17h35.36.423,Heat_Plate_v80,2024.1.5,60,2024-11-18 17h35.50.506686 +0100
15,0,15,0,2024-11-18_17:36:23.711444,,,,33.19179419986904,34.724887900054455,96.0,None,39.1,7.5,96.0,,,,97,2,2024-11-18_17h35.36.423,Heat_Plate_v80,2024.1.5,60,2024-11-18 17h35.50.506686 +0100
16,0,16,0,2024-11-18_17:36:25.712484,,,,35.19126180000603,36.729331499896944,None,None,38.900000000000006,7.5,None,,,,97,2,2024-11-18_17h35.36.423,Heat_Plate_v80,2024.1.5,60,2024-11-18 17h35.50.506686 +0100
17,0,17,0,2024-11-18_17:36:27.720317,,,,37.19636310078204,38.727133200503886,None,None,38.800000000000004,0.5,None,,,,97,2,2024-11-18_17h35.36.423,Heat_Plate_v80,2024.1.5,60,2024-11-18 17h35.50.506686 +0100
18,0,18,0,2024-11-18_17:36:29.711811,,,,39.19284739997238,40.726040800102055,None,None,38.6,11.2,None,,,,97,2,2024-11-18_17h35.36.423,Heat_Plate_v80,2024.1.5,60,2024-11-18 17h35.50.506686 +0100
19,0,19,0,2024-11-18_17:36:31.718572,,,,41.19212760031223,42.72679960075766,None,None,38.5,10.9,None,,,,97,2,2024-11-18_17h35.36.423,Heat_Plate_v80,2024.1.5,60,2024-11-18 17h35.50.506686 +0100
20,0,20,0,2024-11-18_17:36:33.716427,,,,43.19351870007813,44.727170499973,None,None,38.300000000000004,8.5,None,,,,97,2,2024-11-18_17h35.36.423,Heat_Plate_v80,2024.1.5,60,2024-11-18 17h35.50.506686 +0100
21,0,21,0,2024-11-18_17:36:35.711547,,,,45.1929678004235,46.72626650054008,None,None,38.1,10.3,None,,,,97,2,2024-11-18_17h35.36.423,Heat_Plate_v80,2024.1.5,60,2024-11-18 17h35.50.506686 +0100
22,0,22,0,2024-11-18_17:36:37.713035,,,,47.191309600137174,48.72498350031674,None,None,37.9,9.5,None,,,,97,2,2024-11-18_17h35.36.423,Heat_Plate_v80,2024.1.5,60,2024-11-18 17h35.50.506686 +0100
23,0,23,0,2024-11-18_17:36:39.716513,,,,49.19121120031923,50.72507750056684,None,None,37.7,9.6,None,,,,97,2,2024-11-18_17h35.36.423,Heat_Plate_v80,2024.1.5,60,2024-11-18 17h35.50.506686 +0100
24,0,24,0,2024-11-18_17:36:41.717241,,,,51.190984500572085,52.72727630008012,None,None,37.5,9.6,None,,,,97,2,2024-11-18_17h35.36.423,Heat_Plate_v80,2024.1.5,60,2024-11-18 17h35.50.506686 +0100
25,0,25,0,2024-11-18_17:36:43.711867,,,,53.19261710066348,54.72794630005956,None,None,37.300000000000004,8.7,None,,,,97,2,2024-11-18_17h35.36.423,Heat_Plate_v80,2024.1.5,60,2024-11-18 17h35.50.506686 +0100
26,0,26,0,2024-11-18_17:36:45.720864,,,,55.19452950078994,56.72525850031525,None,None,37.2,7.0,None,,,,97,2,2024-11-18_17h35.36.423,Heat_Plate_v80,2024.1.5,60,2024-11-18 17h35.50.506686 +0100
27,0,27,0,2024-11-18_17:36:47.709929,,,,57.1902792006731,58.72433550003916,None,None,37.0,7.1,None,,,,97,2,2024-11-18_17h35.36.423,Heat_Plate_v80,2024.1.5,60,2024-11-18 17h35.50.506686 +0100
28,0,28,0,2024-11-18_17:36:49.710968,,,,59.19007430039346,60.724021000787616,None,None,36.800000000000004,7.1,None,,,,97,2,2024-11-18_17h35.36.423,Heat_Plate_v80,2024.1.5,60,2024-11-18 17h35.50.506686 +0100
29,0,29,0,2024-11-18_17:36:51.708453,,,,61.189267800189555,62.72406420018524,None,None,36.6,6.9,None,,,,97,2,2024-11-18_17h35.36.423,Heat_Plate_v80,2024.1.5,60,2024-11-18 17h35.50.506686 +0100
30,0,30,0,2024-11-18_17:36:53.707349,,,,63.188444999977946,64.7246591001749,None,None,36.4,7.0,None,,,,97,2,2024-11-18_17h35.36.423,Heat_Plate_v80,2024.1.5,60,2024-11-18 17h35.50.506686 +0100
31,0,31,0,2024-11-18_17:36:55.710414,,,,65.19125360064209,66.72419540025294,None,None,36.1,7.0,None,,,,97,2,2024-11-18_17h35.36.423,Heat_Plate_v80,2024.1.5,60,2024-11-18 17h35.50.506686 +0100
32,0,32,0,2024-11-18_17:36:57.709206,,,,67.18922720011324,68.72433250024915,None,None,36.0,7.2,None,,,,97,2,2024-11-18_17h35.36.423,Heat_Plate_v80,2024.1.5,60,2024-11-18 17h35.50.506686 +0100
33,0,33,0,2024-11-18_17:36:59.707915,,,,69.18975220061839,70.72499280050397,None,None,35.800000000000004,7.0,None,,,,97,2,2024-11-18_17h35.36.423,Heat_Plate_v80,2024.1.5,60,2024-11-18 17h35.50.506686 +0100
34,0,34,0,2024-11-18_17:37:01.710536,,,,71.19059790018946,72.72468950040638,None,None,35.6,7.2,None,,,,97,2,2024-11-18_17h35.36.423,Heat_Plate_v80,2024.1.5,60,2024-11-18 17h35.50.506686 +0100
35,0,35,0,2024-11-18_17:37:03.711927,,,,73.19016350060701,74.72565010003746,None,None,35.4,7.6,None,,,,97,2,2024-11-18_17h35.36.423,Heat_Plate_v80,2024.1.5,60,2024-11-18 17h35.50.506686 +0100
36,0,36,0,2024-11-18_17:37:05.714640,,,,75.19209550041705,76.72445270046592,None,None,35.2,7.2,None,,,,97,2,2024-11-18_17h35.36.423,Heat_Plate_v80,2024.1.5,60,2024-11-18 17h35.50.506686 +0100
37,0,37,0,2024-11-18_17:37:07.708018,,,,77.18968380056322,78.72430820018053,None,None,35.0,7.9,None,,,,97,2,2024-11-18_17h35.36.423,Heat_Plate_v80,2024.1.5,60,2024-11-18 17h35.50.506686 +0100
38,0,38,0,2024-11-18_17:37:09.715076,,,,79.1902989000082,80.7236887998879,None,None,34.9,9.6,None,,,,97,2,2024-11-18_17h35.36.423,Heat_Plate_v80,2024.1.5,60,2024-11-18 17h35.50.506686 +0100
39,0,39,0,2024-11-18_17:37:11.707073,,,,81.18871610052884,82.72405270021409,None,None,34.800000000000004,8.5,None,,,,97,2,2024-11-18_17h35.36.423,Heat_Plate_v80,2024.1.5,60,2024-11-18 17h35.50.506686 +0100
40,0,40,0,2024-11-18_17:37:13.707259,,,,83.18987380061299,84.72364670038223,None,None,34.6,8.5,None,,,,97,2,2024-11-18_17h35.36.423,Heat_Plate_v80,2024.1.5,60,2024-11-18 17h35.50.506686 +0100
41,0,41,0,2024-11-18_17:37:15.708417,,,,85.18970570061356,86.72588860057294,None,None,34.5,3.2,None,,,,97,2,2024-11-18_17h35.36.423,Heat_Plate_v80,2024.1.5,60,2024-11-18 17h35.50.506686 +0100
42,0,42,0,2024-11-18_17:37:17.711682,,,,87.19155120011419,88.72468189988285,None,None,34.4,4.8,None,,,,97,2,2024-11-18_17h35.36.423,Heat_Plate_v80,2024.1.5,60,2024-11-18 17h35.50.506686 +0100
43,0,43,0,2024-11-18_17:37:19.713188,,,,89.19022050034255,90.72454049997032,None,None,34.300000000000004,2.3,None,,,,97,2,2024-11-18_17h35.36.423,Heat_Plate_v80,2024.1.5,60,2024-11-18 17h35.50.506686 +0100
44,0,44,0,2024-11-18_17:37:21.713616,,,,91.19035270065069,92.72364090010524,None,None,34.2,3.1,None,,,,97,2,2024-11-18_17h35.36.423,Heat_Plate_v80,2024.1.5,60,2024-11-18 17h35.50.506686 +0100
45,0,45,0,2024-11-18_17:37:23.707023,,,,93.18810120038688,94.7248956002295,None,None,34.0,1.9,None,,,,97,2,2024-11-18_17h35.36.423,Heat_Plate_v80,2024.1.5,60,2024-11-18 17h35.50.506686 +0100
46,0,46,0,2024-11-18_17:37:25.710720,,,,95.1902934005484,96.72303550038487,None,None,34.0,1.3,None,,,,97,2,2024-11-18_17h35.36.423,Heat_Plate_v80,2024.1.5,60,2024-11-18 17h35.50.506686 +0100
47,0,47,0,2024-11-18_17:37:27.710087,,,,97.18833430018276,98.72367530036718,None,None,33.9,1.8,None,,,,97,2,2024-11-18_17h35.36.423,Heat_Plate_v80,2024.1.5,60,2024-11-18 17h35.50.506686 +0100
48,0,48,0,2024-11-18_17:37:29.716996,,,,99.18925570044667,100.72327180020511,None,None,33.800000000000004,2.9,None,,,,97,2,2024-11-18_17h35.36.423,Heat_Plate_v80,2024.1.5,60,2024-11-18 17h35.50.506686 +0100
49,0,49,0,2024-11-18_17:37:31.708180,,,,101.18859610054642,102.71954700071365,None,None,33.800000000000004,2.4,0.0,,,,97,2,2024-11-18_17h35.36.423,Heat_Plate_v80,2024.1.5,60,2024-11-18 17h35.50.506686 +0100
50,0,50,0,2024-11-18_17:37:33.708246,,,,103.18567270040512,104.72161090001464,None,None,33.7,1.1,0.0,,,,97,2,2024-11-18_17h35.36.423,Heat_Plate_v80,2024.1.5,60,2024-11-18 17h35.50.506686 +0100
51,0,51,0,2024-11-18_17:37:35.706715,,,,105.18551700003445,106.72079480066895,None,None,33.7,1.4,0.0,,,,97,2,2024-11-18_17h35.36.423,Heat_Plate_v80,2024.1.5,60,2024-11-18 17h35.50.506686 +0100
52,0,52,0,2024-11-18_17:37:37.714421,,,,107.18694370053709,108.72059850022197,None,None,33.7,1.5,0.0,,,,97,2,2024-11-18_17h35.36.423,Heat_Plate_v80,2024.1.5,60,2024-11-18 17h35.50.506686 +0100
53,0,53,0,2024-11-18_17:37:39.712644,,,,109.18672800064087,110.72191070020199,None,None,33.6,1.8,0.0,,,,97,2,2024-11-18_17h35.36.423,Heat_Plate_v80,2024.1.5,60,2024-11-18 17h35.50.506686 +0100
54,0,54,0,2024-11-18_17:37:41.713987,,,,111.18682240042835,112.72118460014462,None,None,33.6,2.7,0.0,,,,97,2,2024-11-18_17h35.36.423,Heat_Plate_v80,2024.1.5,60,2024-11-18 17h35.50.506686 +0100
55,0,55,0,2024-11-18_17:37:43.711859,,,,113.18592230044305,114.72042350005358,None,None,33.6,2.4,0.0,,,,97,2,2024-11-18_17h35.36.423,Heat_Plate_v80,2024.1.5,60,2024-11-18 17h35.50.506686 +0100
56,0,56,0,2024-11-18_17:37:45.713438,,,,115.18613860011101,116.71950350049883,None,None,33.6,1.7,0.0,,,,97,2,2024-11-18_17h35.36.423,Heat_Plate_v80,2024.1.5,60,2024-11-18 17h35.50.506686 +0100
57,0,57,0,2024-11-18_17:37:47.709047,,,,117.18562570028007,118.72102930024266,None,None,33.6,1.7,0.0,,,,97,2,2024-11-18_17h35.36.423,Heat_Plate_v80,2024.1.5,60,2024-11-18 17h35.50.506686 +0100
58,0,58,0,2024-11-18_17:37:49.712348,,,,119.18680649995804,120.7190069006756,None,None,33.6,1.9,0.0,,,,97,2,2024-11-18_17h35.36.423,Heat_Plate_v80,2024.1.5,60,2024-11-18 17h35.50.506686 +0100
59,0,59,0,2024-11-18_17:37:51.708914,,,,121.1852271007374,122.71868330053985,None,None,33.7,2.3,0.0,,,,97,2,2024-11-18_17h35.36.423,Heat_Plate_v80,2024.1.5,60,2024-11-18 17h35.50.506686 +0100
60,0,60,0,2024-11-18_17:37:53.703487,,,,123.18247070070356,124.71931460034102,None,None,33.7,2.7,0.0,,,,97,2,2024-11-18_17h35.36.423,Heat_Plate_v80,2024.1.5,60,2024-11-18 17h35.50.506686 +0100
61,0,61,0,2024-11-18_17:37:55.711077,,,,125.18607410043478,126.72102300077677,None,None,33.7,2.8,0.0,,,,97,2,2024-11-18_17h35.36.423,Heat_Plate_v80,2024.1.5,60,2024-11-18 17h35.50.506686 +0100
62,0,62,0,2024-11-18_17:37:57.712661,,,,127.18710310012102,128.72019180003554,None,None,33.800000000000004,2.5,0.0,,,,97,2,2024-11-18_17h35.36.423,Heat_Plate_v80,2024.1.5,60,2024-11-18 17h35.50.506686 +0100
63,0,63,0,2024-11-18_17:37:59.709680,,,,129.18572960048914,130.71983630023897,None,None,33.800000000000004,3.0,0.0,,,,97,2,2024-11-18_17h35.36.423,Heat_Plate_v80,2024.1.5,60,2024-11-18 17h35.50.506686 +0100
64,0,64,0,2024-11-18_17:38:01.710655,,,,131.18566980026662,132.72007310017943,None,None,33.9,2.9,0.0,,,,97,2,2024-11-18_17h35.36.423,Heat_Plate_v80,2024.1.5,60,2024-11-18 17h35.50.506686 +0100
65,0,65,0,2024-11-18_17:38:03.710342,,,,133.18470330070704,134.71831050049514,None,None,34.0,3.4,0.0,,,,97,2,2024-11-18_17h35.36.423,Heat_Plate_v80,2024.1.5,60,2024-11-18 17h35.50.506686 +0100
66,0,66,0,2024-11-18_17:38:05.705078,,,,135.18354080058634,136.71973970066756,None,None,34.0,2.6,0.0,,,,97,2,2024-11-18_17h35.36.423,Heat_Plate_v80,2024.1.5,60,2024-11-18 17h35.50.506686 +0100
67,0,67,0,2024-11-18_17:38:07.710495,,,,137.18458299990743,138.71851829998195,None,None,34.1,2.5,0.0,,,,97,2,2024-11-18_17h35.36.423,Heat_Plate_v80,2024.1.5,60,2024-11-18 17h35.50.506686 +0100
68,0,68,0,2024-11-18_17:38:09.708524,,,,139.18384560011327,140.71903969999403,None,None,34.1,2.9,0.0,,,,97,2,2024-11-18_17h35.36.423,Heat_Plate_v80,2024.1.5,60,2024-11-18 17h35.50.506686 +0100
69,0,69,0,2024-11-18_17:38:11.707649,,,,141.18557630013674,142.71975420042872,None,None,34.2,2.8,0.0,,,,97,2,2024-11-18_17h35.36.423,Heat_Plate_v80,2024.1.5,60,2024-11-18 17h35.50.506686 +0100
70,0,70,0,2024-11-18_17:38:13.711918,,,,143.1867611007765,144.7200341001153,None,None,34.2,2.3,0,,,,97,2,2024-11-18_17h35.36.423,Heat_Plate_v80,2024.1.5,60,2024-11-18 17h35.50.506686 +0100
71,0,71,0,2024-11-18_17:38:15.708772,,,,145.18481990043074,146.71823620051146,None,None,34.300000000000004,3.1,0,,,,97,2,2024-11-18_17h35.36.423,Heat_Plate_v80,2024.1.5,60,2024-11-18 17h35.50.506686 +0100
72,0,72,0,2024-11-18_17:38:17.706324,,,,147.18332270067185,148.71940920036286,None,None,34.4,3.3,0,,,,97,2,2024-11-18_17h35.36.423,Heat_Plate_v80,2024.1.5,60,2024-11-18 17h35.50.506686 +0100
73,0,73,0,2024-11-18_17:38:19.707822,,,,149.18604390043765,150.71765200048685,None,None,34.4,3.1,0,,,,97,2,2024-11-18_17h35.36.423,Heat_Plate_v80,2024.1.5,60,2024-11-18 17h35.50.506686 +0100
74,0,74,0,2024-11-18_17:38:21.709128,,,,151.1826810007915,152.71723950002342,None,None,34.5,3.5,0,,,,97,2,2024-11-18_17h35.36.423,Heat_Plate_v80,2024.1.5,60,2024-11-18 17h35.50.506686 +0100
75,0,75,0,2024-11-18_17:38:23.706115,,,,153.1824588002637,154.71904350072145,None,None,34.5,2.2,0,,,,97,2,2024-11-18_17h35.36.423,Heat_Plate_v80,2024.1.5,60,2024-11-18 17h35.50.506686 +0100
76,0,76,0,2024-11-18_17:38:25.705760,,,,155.1847645007074,156.7182694002986,None,None,34.5,2.2,0,,,,97,2,2024-11-18_17h35.36.423,Heat_Plate_v80,2024.1.5,60,2024-11-18 17h35.50.506686 +0100
77,0,77,0,2024-11-18_17:38:27.707838,,,,157.1833208007738,158.71819390077144,None,None,34.6,2.4,0,,,,97,2,2024-11-18_17h35.36.423,Heat_Plate_v80,2024.1.5,60,2024-11-18 17h35.50.506686 +0100
78,0,78,0,2024-11-18_17:38:29.710555,,,,159.18592109996825,160.71816339995712,None,None,34.6,2.0,0,,,,97,2,2024-11-18_17h35.36.423,Heat_Plate_v80,2024.1.5,60,2024-11-18 17h35.50.506686 +0100
79,0,79,0,2024-11-18_17:38:31.703525,,,,161.18242860026658,162.71759400051087,None,None,34.6,2.1,0,,,,97,2,2024-11-18_17h35.36.423,Heat_Plate_v80,2024.1.5,60,2024-11-18 17h35.50.506686 +0100
80,0,80,0,2024-11-18_17:38:33.704876,,,,163.181323800236,164.71836110018194,None,None,34.7,1.9,0,,,,97,2,2024-11-18_17h35.36.423,Heat_Plate_v80,2024.1.5,60,2024-11-18 17h35.50.506686 +0100
81,0,81,0,2024-11-18_17:38:35.708912,,,,165.18392420001328,166.71750030014664,None,None,34.7,2.5,0,,,,97,2,2024-11-18_17h35.36.423,Heat_Plate_v80,2024.1.5,60,2024-11-18 17h35.50.506686 +0100
82,0,82,0,2024-11-18_17:38:37.708730,,,,167.18336120061576,168.71736900042742,None,None,34.7,1.9,0,,,,97,2,2024-11-18_17h35.36.423,Heat_Plate_v80,2024.1.5,60,2024-11-18 17h35.50.506686 +0100
83,0,83,0,2024-11-18_17:38:39.703199,,,,169.18112460058182,170.717817700468,None,None,34.7,2.0,0,,,,97,2,2024-11-18_17h35.36.423,Heat_Plate_v80,2024.1.5,60,2024-11-18 17h35.50.506686 +0100
84,0,84,0,2024-11-18_17:38:41.709464,,,,171.1843405002728,172.71863909997046,None,None,34.800000000000004,2.7,0,,,,97,2,2024-11-18_17h35.36.423,Heat_Plate_v80,2024.1.5,60,2024-11-18 17h35.50.506686 +0100
85,0,85,0,2024-11-18_17:38:43.708219,,,,173.18283519987017,174.71805180050433,None,None,34.800000000000004,2.7,0,,,,97,2,2024-11-18_17h35.36.423,Heat_Plate_v80,2024.1.5,60,2024-11-18 17h35.50.506686 +0100
86,0,86,0,2024-11-18_17:38:45.709062,,,,175.18477480020374,176.71635570004582,None,None,34.800000000000004,2.3,0,,,,97,2,2024-11-18_17h35.36.423,Heat_Plate_v80,2024.1.5,60,2024-11-18 17h35.50.506686 +0100
87,0,87,0,2024-11-18_17:38:47.706331,,,,177.1817053006962,178.71729230042547,None,None,34.9,2.7,0,,,,97,2,2024-11-18_17h35.36.423,Heat_Plate_v80,2024.1.5,60,2024-11-18 17h35.50.506686 +0100
88,0,88,0,2024-11-18_17:38:49.709728,,,,179.1830392004922,180.71627140045166,None,None,34.9,2.4,0,,,,97,2,2024-11-18_17h35.36.423,Heat_Plate_v80,2024.1.5,60,2024-11-18 17h35.50.506686 +0100
89,0,89,0,2024-11-18_17:38:51.708042,,,,181.1821984006092,182.71596520021558,None,None,34.9,2.4,0,,,,97,2,2024-11-18_17h35.36.423,Heat_Plate_v80,2024.1.5,60,2024-11-18 17h35.50.506686 +0100
90,0,90,0,2024-11-18_17:38:53.699165,,,,183.17993310000747,184.7171884002164,None,None,34.9,2.5,0,,,,97,2,2024-11-18_17h35.36.423,Heat_Plate_v80,2024.1.5,60,2024-11-18 17h35.50.506686 +0100
91,0,91,0,2024-11-18_17:38:55.705602,,,,185.18256090022624,186.71783500071615,None,None,34.9,2.8,0,,,,97,2,2024-11-18_17h35.36.423,Heat_Plate_v80,2024.1.5,60,2024-11-18 17h35.50.506686 +0100
92,0,92,0,2024-11-18_17:38:57.711889,,,,187.18515940010548,188.71573540009558,None,None,34.9,2.0,0,,,,97,2,2024-11-18_17h35.36.423,Heat_Plate_v80,2024.1.5,60,2024-11-18 17h35.50.506686 +0100
93,0,93,0,2024-11-18_17:38:59.700800,,,,189.1794509999454,190.71758690010756,None,None,34.9,2.2,0,,,,97,2,2024-11-18_17h35.36.423,Heat_Plate_v80,2024.1.5,60,2024-11-18 17h35.50.506686 +0100
94,0,94,0,2024-11-18_17:39:01.709253,,,,191.1831106999889,192.716223500669,None,None,34.9,1.9,0,,,,97,2,2024-11-18_17h35.36.423,Heat_Plate_v80,2024.1.5,60,2024-11-18 17h35.50.506686 +0100
95,0,95,0,2024-11-18_17:39:03.709400,,,,193.1825983999297,194.71602530032396,None,None,34.9,1.8,0,,,,97,2,2024-11-18_17h35.36.423,Heat_Plate_v80,2024.1.5,60,2024-11-18 17h35.50.506686 +0100
96,0,96,0,2024-11-18_17:39:05.710972,,,,195.18261980079114,196.71693450026214,None,None,34.9,1.7,0,,,,97,2,2024-11-18_17h35.36.423,Heat_Plate_v80,2024.1.5,60,2024-11-18 17h35.50.506686 +0100
97,0,97,0,2024-11-18_17:39:07.708847,,,,197.18315090052783,198.7170810000971,None,None,34.9,2.5,0,,,,97,2,2024-11-18_17h35.36.423,Heat_Plate_v80,2024.1.5,60,2024-11-18 17h35.50.506686 +0100
98,0,98,0,2024-11-18_17:39:09.707641,,,,199.18199460022151,200.71510019991547,None,None,35.0,2.0,0,,,,97,2,2024-11-18_17h35.36.423,Heat_Plate_v80,2024.1.5,60,2024-11-18 17h35.50.506686 +0100
99,0,99,0,2024-11-18_17:39:11.703129,,,,201.18051439989358,202.71747360005975,None,None,35.1,2.9,0,,,,97,2,2024-11-18_17h35.36.423,Heat_Plate_v80,2024.1.5,60,2024-11-18 17h35.50.506686 +0100
100,0,100,0,2024-11-18_17:39:13.707341,,,,203.18176120053977,204.71476700063795,None,None,35.2,2.3,0,,,,97,2,2024-11-18_17h35.36.423,Heat_Plate_v80,2024.1.5,60,2024-11-18 17h35.50.506686 +0100
101,0,101,0,2024-11-18_17:39:15.703701,,,,205.17969320062548,206.71560220047832,None,None,35.300000000000004,2.8,0,,,,97,2,2024-11-18_17h35.36.423,Heat_Plate_v80,2024.1.5,60,2024-11-18 17h35.50.506686 +0100
102,0,102,0,2024-11-18_17:39:17.703710,,,,207.1809966005385,208.71523830015212,None,None,35.4,2.2,0,,,,97,2,2024-11-18_17h35.36.423,Heat_Plate_v80,2024.1.5,60,2024-11-18 17h35.50.506686 +0100
103,0,103,0,2024-11-18_17:39:19.704259,,,,209.18152250070125,210.71658220048994,None,None,35.6,2.3,0,,,,97,2,2024-11-18_17h35.36.423,Heat_Plate_v80,2024.1.5,60,2024-11-18 17h35.50.506686 +0100
104,0,104,0,2024-11-18_17:39:21.706624,,,,211.18128190003335,212.71653559990227,None,None,35.7,2.2,0,,,,97,2,2024-11-18_17h35.36.423,Heat_Plate_v80,2024.1.5,60,2024-11-18 17h35.50.506686 +0100
105,0,105,0,2024-11-18_17:39:23.701688,,,,213.18117620050907,214.7153594000265,None,None,35.9,2.6,0,,,,97,2,2024-11-18_17h35.36.423,Heat_Plate_v80,2024.1.5,60,2024-11-18 17h35.50.506686 +0100
106,0,106,0,2024-11-18_17:39:25.698019,,,,215.17908770032227,216.71679840050638,None,None,36.0,2.1,0.0,,,,97,2,2024-11-18_17h35.36.423,Heat_Plate_v80,2024.1.5,60,2024-11-18 17h35.50.506686 +0100
107,0,107,0,2024-11-18_17:39:27.709064,,,,217.18360170070082,218.7155809001997,None,None,36.2,2.2,0.0,,,,97,2,2024-11-18_17h35.36.423,Heat_Plate_v80,2024.1.5,60,2024-11-18 17h35.50.506686 +0100
108,0,108,0,2024-11-18_17:39:29.706584,,,,219.18168599996716,220.71535670012236,None,None,36.4,2.9,0.0,,,,97,2,2024-11-18_17h35.36.423,Heat_Plate_v80,2024.1.5,60,2024-11-18 17h35.50.506686 +0100
109,0,109,0,2024-11-18_17:39:31.706326,,,,221.18063720036298,222.71484670042992,None,None,36.6,2.3,0.0,,,,97,2,2024-11-18_17h35.36.423,Heat_Plate_v80,2024.1.5,60,2024-11-18 17h35.50.506686 +0100
110,0,110,0,2024-11-18_17:39:33.703097,,,,223.18028020020574,224.7159264003858,None,None,36.800000000000004,2.2,0.0,,,,97,2,2024-11-18_17h35.36.423,Heat_Plate_v80,2024.1.5,60,2024-11-18 17h35.50.506686 +0100
111,0,111,0,2024-11-18_17:39:35.707871,,,,225.18179400078952,226.71484010014683,None,None,37.0,2.3,0.0,,,,97,2,2024-11-18_17h35.36.423,Heat_Plate_v80,2024.1.5,60,2024-11-18 17h35.50.506686 +0100
112,0,112,0,2024-11-18_17:39:37.699737,,,,227.1792044006288,228.71493790019304,None,None,37.2,2.3,0.0,,,,97,2,2024-11-18_17h35.36.423,Heat_Plate_v80,2024.1.5,60,2024-11-18 17h35.50.506686 +0100
113,0,113,0,2024-11-18_17:39:39.704636,,,,229.18035420030355,230.71462270058692,None,None,37.4,2.1,0,,,,97,2,2024-11-18_17h35.36.423,Heat_Plate_v80,2024.1.5,60,2024-11-18 17h35.50.506686 +0100
114,0,114,0,2024-11-18_17:39:41.705226,,,,231.1794580006972,232.71644680015743,None,None,37.6,2.5,0,,,,97,2,2024-11-18_17h35.36.423,Heat_Plate_v80,2024.1.5,60,2024-11-18 17h35.50.506686 +0100
115,0,115,0,2024-11-18_17:39:43.708088,,,,233.18219619989395,234.715519499965,None,None,37.800000000000004,2.5,0,,,,97,2,2024-11-18_17h35.36.423,Heat_Plate_v80,2024.1.5,60,2024-11-18 17h35.50.506686 +0100
116,0,116,0,2024-11-18_17:39:45.707369,,,,235.18152370024472,236.71569189988077,None,None,38.1,2.5,0,,,,97,2,2024-11-18_17h35.36.423,Heat_Plate_v80,2024.1.5,60,2024-11-18 17h35.50.506686 +0100
117,0,117,0,2024-11-18_17:39:47.705451,,,,237.1813338007778,238.71377710066736,None,None,38.300000000000004,2.4,0,,,,97,2,2024-11-18_17h35.36.423,Heat_Plate_v80,2024.1.5,60,2024-11-18 17h35.50.506686 +0100
118,0,118,0,2024-11-18_17:39:49.702069,,,,239.1781701007858,240.71398309990764,None,None,38.5,2.6,0,,,,97,2,2024-11-18_17h35.36.423,Heat_Plate_v80,2024.1.5,60,2024-11-18 17h35.50.506686 +0100
119,0,119,0,2024-11-18_17:39:51.702403,,,,241.17924940027297,242.71507170051336,None,None,38.6,2.4,0,,,,97,2,2024-11-18_17h35.36.423,Heat_Plate_v80,2024.1.5,60,2024-11-18 17h35.50.506686 +0100
120,0,120,0,2024-11-18_17:39:53.695230,,,,243.17749130073935,244.7149205999449,None,None,38.800000000000004,2.5,0,,,,97,2,2024-11-18_17h35.36.423,Heat_Plate_v80,2024.1.5,60,2024-11-18 17h35.50.506686 +0100
121,0,121,0,2024-11-18_17:39:55.704870,,,,245.1787840006873,246.7144747003913,None,None,39.0,3.2,0,,,,97,2,2024-11-18_17h35.36.423,Heat_Plate_v80,2024.1.5,60,2024-11-18 17h35.50.506686 +0100
122,0,122,0,2024-11-18_17:39:57.708481,,,,247.18034540023655,248.7133427001536,None,None,39.2,2.7,0,,,,97,2,2024-11-18_17h35.36.423,Heat_Plate_v80,2024.1.5,60,2024-11-18 17h35.50.506686 +0100
123,0,123,0,2024-11-18_17:39:59.707741,,,,249.17913610022515,250.71371160075068,None,None,39.400000000000006,2.6,0,,,,97,2,2024-11-18_17h35.36.423,Heat_Plate_v80,2024.1.5,60,2024-11-18 17h35.50.506686 +0100
124,0,124,0,2024-11-18_17:40:01.704204,,,,251.17959920037538,252.71510590054095,None,None,39.6,2.9,0,,,,97,2,2024-11-18_17h35.36.423,Heat_Plate_v80,2024.1.5,60,2024-11-18 17h35.50.506686 +0100
125,0,125,0,2024-11-18_17:40:03.698764,,,,253.17836790066212,254.7143711000681,None,None,39.800000000000004,2.3,0,,,,97,2,2024-11-18_17h35.36.423,Heat_Plate_v80,2024.1.5,60,2024-11-18 17h35.50.506686 +0100
126,0,126,0,2024-11-18_17:40:05.704858,,,,255.180870000273,256.7132763005793,None,None,40.0,2.6,0.0,,,,97,2,2024-11-18_17h35.36.423,Heat_Plate_v80,2024.1.5,60,2024-11-18 17h35.50.506686 +0100
127,0,127,0,2024-11-18_17:40:07.707160,,,,257.1791145000607,258.71330190077424,None,None,40.2,2.9,1.0,,,,97,2,2024-11-18_17h35.36.423,Heat_Plate_v80,2024.1.5,60,2024-11-18 17h35.50.506686 +0100
128,0,128,0,2024-11-18_17:40:09.706963,,,,259.1784933004528,260.7133503006771,None,None,40.300000000000004,2.8,2.0,,,,97,2,2024-11-18_17h35.36.423,Heat_Plate_v80,2024.1.5,60,2024-11-18 17h35.50.506686 +0100
129,0,129,0,2024-11-18_17:40:11.704230,,,,261.17813070025295,262.7127661006525,None,None,40.5,2.8,3.0,,,,97,2,2024-11-18_17h35.36.423,Heat_Plate_v80,2024.1.5,60,2024-11-18 17h35.50.506686 +0100
130,0,130,0,2024-11-18_17:40:13.707150,,,,263.17987650074065,264.7121154004708,None,None,40.7,3.4,8.0,,,,97,2,2024-11-18_17h35.36.423,Heat_Plate_v80,2024.1.5,60,2024-11-18 17h35.50.506686 +0100
131,0,131,0,2024-11-18_17:40:15.699497,,,,265.17802450060844,266.7122831000015,None,None,40.800000000000004,3.4,11.0,,,,97,2,2024-11-18_17h35.36.423,Heat_Plate_v80,2024.1.5,60,2024-11-18 17h35.50.506686 +0100
132,0,132,0,2024-11-18_17:40:17.701494,,,,267.1776010999456,268.71289500035346,None,None,41.1,3.0,13.0,,,,97,2,2024-11-18_17h35.36.423,Heat_Plate_v80,2024.1.5,60,2024-11-18 17h35.50.506686 +0100
133,0,133,0,2024-11-18_17:40:19.701091,,,,269.1782697001472,270.71328110061586,None,None,41.2,3.6,14.0,,,,97,2,2024-11-18_17h35.36.423,Heat_Plate_v80,2024.1.5,60,2024-11-18 17h35.50.506686 +0100
134,0,134,0,2024-11-18_17:40:21.705535,,,,271.18007209990174,272.71196740027517,None,None,41.400000000000006,2.8,14.0,,,,97,2,2024-11-18_17h35.36.423,Heat_Plate_v80,2024.1.5,60,2024-11-18 17h35.50.506686 +0100
135,0,135,0,2024-11-18_17:40:23.697555,,,,273.17598660010844,274.71306800004095,None,None,41.5,3.0,15.0,,,,97,2,2024-11-18_17h35.36.423,Heat_Plate_v80,2024.1.5,60,2024-11-18 17h35.50.506686 +0100
136,0,136,0,2024-11-18_17:40:25.699265,,,,275.17615499999374,276.7117543006316,None,None,41.7,2.9,16.0,,,,97,2,2024-11-18_17h35.36.423,Heat_Plate_v80,2024.1.5,60,2024-11-18 17h35.50.506686 +0100
137,0,137,0,2024-11-18_17:40:27.704796,,,,277.1784348003566,278.7126139001921,None,None,41.900000000000006,2.9,17.0,,,,97,2,2024-11-18_17h35.36.423,Heat_Plate_v80,2024.1.5,60,2024-11-18 17h35.50.506686 +0100
138,0,138,0,2024-11-18_17:40:29.702442,,,,279.178836800158,280.711353700608,None,None,42.0,3.3,18.0,,,,97,2,2024-11-18_17h35.36.423,Heat_Plate_v80,2024.1.5,60,2024-11-18 17h35.50.506686 +0100
139,0,139,0,2024-11-18_17:40:31.704547,,,,281.17852510046214,282.7120390003547,None,None,42.2,2.7,18.0,,,,97,2,2024-11-18_17h35.36.423,Heat_Plate_v80,2024.1.5,60,2024-11-18 17h35.50.506686 +0100
140,0,140,0,2024-11-18_17:40:33.701829,,,,283.1771753001958,284.7128208000213,None,None,42.400000000000006,3.1,19.0,,,,97,2,2024-11-18_17h35.36.423,Heat_Plate_v80,2024.1.5,60,2024-11-18 17h35.50.506686 +0100
141,0,141,0,2024-11-18_17:40:35.703229,,,,285.17833450064063,286.7138128001243,None,None,42.5,3.0,20.0,,,,97,2,2024-11-18_17h35.36.423,Heat_Plate_v80,2024.1.5,60,2024-11-18 17h35.50.506686 +0100
142,0,142,0,2024-11-18_17:40:37.706298,,,,287.1797568006441,288.71419000066817,None,None,42.7,3.2,23.0,,,,97,2,2024-11-18_17h35.36.423,Heat_Plate_v80,2024.1.5,60,2024-11-18 17h35.50.506686 +0100
143,0,143,0,2024-11-18_17:40:39.704301,,,,289.17936380021274,290.7124761007726,None,None,42.800000000000004,2.9,27.0,,,,97,2,2024-11-18_17h35.36.423,Heat_Plate_v80,2024.1.5,60,2024-11-18 17h35.50.506686 +0100
144,0,144,0,2024-11-18_17:40:41.701177,,,,291.17749470006675,292.7131690001115,None,None,43.0,2.7,31.0,,,,97,2,2024-11-18_17h35.36.423,Heat_Plate_v80,2024.1.5,60,2024-11-18 17h35.50.506686 +0100
145,0,145,0,2024-11-18_17:40:43.706073,,,,293.1796941002831,294.7127895001322,None,None,43.1,3.4,32.0,,,,97,2,2024-11-18_17h35.36.423,Heat_Plate_v80,2024.1.5,60,2024-11-18 17h35.50.506686 +0100
146,0,146,0,2024-11-18_17:40:45.698836,,,,295.1773403007537,296.71237470023334,None,None,43.300000000000004,3.4,35.0,,,,97,2,2024-11-18_17h35.36.423,Heat_Plate_v80,2024.1.5,60,2024-11-18 17h35.50.506686 +0100
147,0,147,0,2024-11-18_17:40:47.700609,,,,297.1781158000231,298.71337760053575,None,None,43.400000000000006,3.1,41.0,,,,97,2,2024-11-18_17h35.36.423,Heat_Plate_v80,2024.1.5,60,2024-11-18 17h35.50.506686 +0100
148,0,148,0,2024-11-18_17:40:49.701745,,,,299.17826279997826,300.7117804000154,None,None,43.6,3.0,44.0,,,,97,2,2024-11-18_17h35.36.423,Heat_Plate_v80,2024.1.5,60,2024-11-18 17h35.50.506686 +0100
149,0,149,0,2024-11-18_17:40:51.699003,,,,301.1773155005649,302.7117026001215,None,None,43.7,3.1,47.0,,,,97,2,2024-11-18_17h35.36.423,Heat_Plate_v80,2024.1.5,60,2024-11-18 17h35.50.506686 +0100
150,0,150,0,2024-11-18_17:40:53.696131,,,,303.17649440001696,304.7110418006778,None,None,43.900000000000006,3.5,50.0,,,,97,2,2024-11-18_17h35.36.423,Heat_Plate_v80,2024.1.5,60,2024-11-18 17h35.50.506686 +0100
151,0,151,0,2024-11-18_17:40:55.698031,,,,305.1756775006652,306.73026330024004,None,None,44.0,3.5,52.0,,,,97,2,2024-11-18_17h35.36.423,Heat_Plate_v80,2024.1.5,60,2024-11-18 17h35.50.506686 +0100
152,0,152,0,2024-11-18_17:40:57.715630,,,,307.19691260065883,308.72949270065874,None,None,44.1,3.2,54.0,,,,97,2,2024-11-18_17h35.36.423,Heat_Plate_v80,2024.1.5,60,2024-11-18 17h35.50.506686 +0100
153,0,153,0,2024-11-18_17:40:59.713150,,,,309.1936622001231,310.7289075003937,None,None,44.300000000000004,2.9,55.0,,,,97,2,2024-11-18_17h35.36.423,Heat_Plate_v80,2024.1.5,60,2024-11-18 17h35.50.506686 +0100
154,0,154,0,2024-11-18_17:41:01.719474,,,,311.1958533003926,312.7106544999406,None,None,44.5,2.0,56.0,,,,97,2,2024-11-18_17h35.36.423,Heat_Plate_v80,2024.1.5,60,2024-11-18 17h35.50.506686 +0100
155,0,155,0,2024-11-18_17:41:03.703422,,,,313.1756963003427,314.7261672001332,None,None,44.6,2.2,58.0,,,,97,2,2024-11-18_17h35.36.423,Heat_Plate_v80,2024.1.5,60,2024-11-18 17h35.50.506686 +0100
156,0,156,0,2024-11-18_17:41:05.718539,,,,315.19225890003145,316.7305787000805,None,None,44.800000000000004,2.6,59.0,,,,97,2,2024-11-18_17h35.36.423,Heat_Plate_v80,2024.1.5,60,2024-11-18 17h35.50.506686 +0100
157,0,157,0,2024-11-18_17:41:07.720872,,,,317.19567590020597,318.72791620064527,None,None,44.900000000000006,2.5,60.0,,,,97,2,2024-11-18_17h35.36.423,Heat_Plate_v80,2024.1.5,60,2024-11-18 17h35.50.506686 +0100
158,0,158,0,2024-11-18_17:41:09.719577,,,,319.1928701000288,320.72904979996383,None,None,45.1,2.4,61.0,,,,97,2,2024-11-18_17h35.36.423,Heat_Plate_v80,2024.1.5,60,2024-11-18 17h35.50.506686 +0100
159,0,159,0,2024-11-18_17:41:11.720607,,,,321.193460800685,322.72969220019877,None,None,45.2,2.9,62.0,,,,97,2,2024-11-18_17h35.36.423,Heat_Plate_v80,2024.1.5,60,2024-11-18 17h35.50.506686 +0100
160,0,160,0,2024-11-18_17:41:13.720863,,,,323.19656170066446,324.72749279998243,None,None,45.400000000000006,2.2,63.0,,,,97,2,2024-11-18_17h35.36.423,Heat_Plate_v80,2024.1.5,60,2024-11-18 17h35.50.506686 +0100
161,0,161,0,2024-11-18_17:41:15.721868,,,,325.1936484007165,326.72665840014815,None,None,45.6,2.3,63.0,,,,97,2,2024-11-18_17h35.36.423,Heat_Plate_v80,2024.1.5,60,2024-11-18 17h35.50.506686 +0100
162,0,162,0,2024-11-18_17:41:17.716848,,,,327.19340930040926,328.7289001001045,None,None,45.7,2.4,64.0,,,,97,2,2024-11-18_17h35.36.423,Heat_Plate_v80,2024.1.5,60,2024-11-18 17h35.50.506686 +0100
163,0,163,0,2024-11-18_17:41:19.719054,,,,329.19347690045834,330.7289720000699,None,None,45.900000000000006,2.1,65.0,,,,97,2,2024-11-18_17h35.36.423,Heat_Plate_v80,2024.1.5,60,2024-11-18 17h35.50.506686 +0100
164,0,164,0,2024-11-18_17:41:21.717176,,,,331.1934793004766,332.7270431006327,None,None,46.0,2.4,65.0,,,,97,2,2024-11-18_17h35.36.423,Heat_Plate_v80,2024.1.5,60,2024-11-18 17h35.50.506686 +0100
165,0,165,0,2024-11-18_17:41:23.710484,,,,333.1904699001461,334.7270033005625,None,None,46.2,2.6,67.0,,,,97,2,2024-11-18_17h35.36.423,Heat_Plate_v80,2024.1.5,60,2024-11-18 17h35.50.506686 +0100
166,0,166,0,2024-11-18_17:41:25.717261,,,,335.19187780003995,336.7265520999208,None,None,46.400000000000006,1.8,68.0,,,,97,2,2024-11-18_17h35.36.423,Heat_Plate_v80,2024.1.5,60,2024-11-18 17h35.50.506686 +0100
167,0,167,0,2024-11-18_17:41:27.716652,,,,337.1917778002098,338.72601480036974,None,None,46.5,1.5,69.0,,,,97,2,2024-11-18_17h35.36.423,Heat_Plate_v80,2024.1.5,60,2024-11-18 17h35.50.506686 +0100
168,0,168,0,2024-11-18_17:41:29.718759,,,,339.1930134007707,340.72584570012987,None,None,46.7,1.6,70.0,,,,97,2,2024-11-18_17h35.36.423,Heat_Plate_v80,2024.1.5,60,2024-11-18 17h35.50.506686 +0100
169,0,169,0,2024-11-18_17:41:31.716483,,,,341.19246530067176,342.7275419002399,None,None,46.800000000000004,1.8,71.0,,,,97,2,2024-11-18_17h35.36.423,Heat_Plate_v80,2024.1.5,60,2024-11-18 17h35.50.506686 +0100
170,0,170,0,2024-11-18_17:41:33.717674,,,,343.1928353002295,344.725481800735,None,None,47.0,1.9,72.0,,,,97,2,2024-11-18_17h35.36.423,Heat_Plate_v80,2024.1.5,60,2024-11-18 17h35.50.506686 +0100
171,0,171,0,2024-11-18_17:41:35.716003,,,,345.19018159992993,346.72654390055686,None,None,47.1,1.7,73.0,,,,97,2,2024-11-18_17h35.36.423,Heat_Plate_v80,2024.1.5,60,2024-11-18 17h35.50.506686 +0100
172,0,172,0,2024-11-18_17:41:37.717556,,,,347.19330820068717,348.7249014005065,None,None,47.300000000000004,1.8,74.0,,,,97,2,2024-11-18_17h35.36.423,Heat_Plate_v80,2024.1.5,60,2024-11-18 17h35.50.506686 +0100
173,0,173,0,2024-11-18_17:41:39.712548,,,,349.1905108001083,350.72545660007745,None,None,47.400000000000006,1.6,76.0,,,,97,2,2024-11-18_17h35.36.423,Heat_Plate_v80,2024.1.5,60,2024-11-18 17h35.50.506686 +0100
174,0,174,0,2024-11-18_17:41:41.718404,,,,351.1922316001728,352.7241533007473,None,None,47.6,1.7,79.0,,,,97,2,2024-11-18_17h35.36.423,Heat_Plate_v80,2024.1.5,60,2024-11-18 17h35.50.506686 +0100
175,0,175,0,2024-11-18_17:41:43.713145,,,,353.18919300008565,354.725241499953,None,None,47.7,1.7,80.0,,,,97,2,2024-11-18_17h35.36.423,Heat_Plate_v80,2024.1.5,60,2024-11-18 17h35.50.506686 +0100
176,0,176,0,2024-11-18_17:41:45.709175,,,,355.18808220047504,356.72474450059235,None,None,47.800000000000004,1.7,80.0,,,,97,2,2024-11-18_17h35.36.423,Heat_Plate_v80,2024.1.5,60,2024-11-18 17h35.50.506686 +0100
177,0,177,0,2024-11-18_17:41:47.716492,,,,357.1907381005585,358.7251027999446,None,None,47.900000000000006,1.9,81.0,,,,97,2,2024-11-18_17h35.36.423,Heat_Plate_v80,2024.1.5,60,2024-11-18 17h35.50.506686 +0100
178,0,178,0,2024-11-18_17:41:49.713768,,,,359.18917299993336,360.72596500068903,None,None,47.900000000000006,2.0,81.0,,,,97,2,2024-11-18_17h35.36.423,Heat_Plate_v80,2024.1.5,60,2024-11-18 17h35.50.506686 +0100
179,0,179,0,2024-11-18_17:41:51.715731,,,,361.1909389998764,362.72488410025835,None,None,48.0,2.0,82.0,,,,97,2,2024-11-18_17h35.36.423,Heat_Plate_v80,2024.1.5,60,2024-11-18 17h35.50.506686 +0100
,,,,,,,,,,,,,,,363.1871017999947,363.1933233002201,372.72041370067745,97,2,2024-11-18_17h35.36.423,Heat_Plate_v80,2024.1.5,60,2024-11-18 17h35.50.506686 +0100
